"Time (s)","Linear Acceleration x (m/s^2)","Linear Acceleration y (m/s^2)","Linear Acceleration z (m/s^2)"
3.758115100E-2,-1.509480029E-1,1.008619964E-1,3.209980130E-1
5.158729500E-2,-1.200440004E-1,1.095350012E-1,3.279699981E-1
6.559255900E-2,-1.166270003E-1,2.888399921E-2,2.710050046E-1
7.959871700E-2,-1.166270003E-1,2.888399921E-2,2.710050046E-1
9.360555400E-2,-1.237109974E-1,5.226200074E-2,1.389690042E-1
1.076117270E-1,-1.134089977E-1,6.861499697E-2,8.073800057E-2
1.216171310E-1,-8.771499991E-2,1.571470052E-1,1.675119996E-1
1.356232270E-1,-8.771499991E-2,1.571470052E-1,1.675119996E-1
1.496301400E-1,-2.486329973E-1,1.618590057E-1,9.724500030E-2
1.636361980E-1,-3.234420121E-1,8.312799782E-2,3.509559929E-1
1.776415640E-1,-3.234420121E-1,8.312799782E-2,3.509559929E-1
1.916477370E-1,-4.062669873E-1,-6.368999835E-3,3.843399882E-1
2.056545690E-1,-2.678900063E-1,-1.082810014E-1,2.296520025E-1
2.196607170E-1,-2.678900063E-1,-1.082810014E-1,2.296520025E-1
2.336660530E-1,1.100580022E-1,1.517560035E-1,-5.251200125E-2
2.476722070E-1,6.530600041E-2,2.109269947E-1,3.192700073E-2
2.616790580E-1,-1.458490044E-1,1.688050032E-1,2.095620036E-1
2.756851640E-1,-1.458490044E-1,1.688050032E-1,2.095620036E-1
2.896905630E-1,-2.696250081E-1,4.805900156E-2,2.742429972E-1
3.036966300E-1,-1.195859984E-1,-1.792399958E-2,3.301050067E-1
3.177035530E-1,-1.195859984E-1,-1.792399958E-2,3.301050067E-1
3.317095640E-1,2.302899957E-2,1.916240007E-1,1.827020049E-1
3.457149200E-1,1.431700028E-2,1.096670032E-1,1.232760027E-1
3.597210740E-1,1.431700028E-2,1.096670032E-1,1.232760027E-1
3.737279150E-1,-8.911900222E-2,-1.588059962E-1,2.410379946E-1
3.877341080E-1,-1.000799984E-1,-2.590500005E-2,2.947210073E-1
4.017394720E-1,-8.207099885E-2,-5.820500106E-2,2.161290050E-1
4.157455540E-1,-8.207099885E-2,-5.820500106E-2,2.161290050E-1
4.297524710E-1,1.102299988E-2,-9.668000042E-2,1.686480045E-1
4.437585160E-1,-1.151089966E-1,1.341660023E-1,2.671270072E-1
4.577638620E-1,-1.151089966E-1,1.341660023E-1,2.671270072E-1
4.717699300E-1,-1.316079944E-1,6.511399895E-2,2.297350019E-1
4.857769050E-1,-1.252059937E-1,7.144899666E-2,1.495240033E-1
4.997829870E-1,-1.252059937E-1,7.144899666E-2,1.495240033E-1
5.137883620E-1,-1.698659956E-1,1.177520007E-1,3.160409927E-1
5.277945250E-1,-1.230470017E-1,6.102799997E-2,2.402680069E-1
5.418014000E-1,2.398000099E-3,-2.044600062E-2,1.694159955E-1
5.558075920E-1,2.398000099E-3,-2.044600062E-2,1.694159955E-1
5.698129810E-1,8.675000072E-2,1.289010048E-1,1.703850031E-1
5.838190870E-1,-1.023849994E-1,2.152740061E-1,1.097640023E-1
5.978260050E-1,-1.023849994E-1,2.152740061E-1,1.097640023E-1
6.118320870E-1,-1.658219993E-1,6.216600165E-2,1.881490052E-1
6.258374820E-1,-1.386310011E-1,-6.586900353E-2,2.754670084E-1
6.398435790E-1,-1.386310011E-1,-6.586900353E-2,2.754670084E-1
6.538504870E-1,-1.303289980E-1,-1.997839957E-1,3.630180061E-1
6.678565690E-1,-1.544899940E-1,-4.989999812E-3,3.907960057E-1
6.818619590E-1,-1.648029983E-1,1.780609936E-1,2.162099928E-1
6.958680970E-1,-1.648029983E-1,1.780609936E-1,2.162099928E-1
7.098749440E-1,-1.497270018E-1,1.453649998E-1,6.568200141E-2
7.238811210E-1,-1.342059970E-1,2.762899920E-2,-2.579200082E-2
7.378864340E-1,-1.342059970E-1,2.762899920E-2,-2.579200082E-2
7.518925250E-1,-8.748699725E-2,-1.509100012E-2,1.600150019E-1
7.658993520E-1,-1.142420024E-1,-2.459000051E-2,3.821820021E-1
7.799055060E-1,-1.142420024E-1,-2.459000051E-2,3.821820021E-1
7.939108570E-1,-7.420200109E-2,-5.468000099E-2,2.716479897E-1
8.079169290E-1,2.919599973E-2,7.687699795E-2,2.003870010E-1
8.219238330E-1,4.581000190E-3,1.746959984E-1,2.489809990E-1
8.359298960E-1,4.581000190E-3,1.746959984E-1,2.489809990E-1
8.499352650E-1,-5.180500075E-2,9.997899830E-2,1.289239973E-1
8.639414480E-1,-1.047689989E-1,-1.843030006E-1,3.829309940E-1
8.779483290E-1,-1.047689989E-1,-1.843030006E-1,3.829309940E-1
8.919544380E-1,-1.512659937E-1,-2.241470069E-1,4.544360042E-1
9.059598230E-1,-1.389259994E-1,-1.157749966E-1,1.949380040E-1
9.199659340E-1,-1.116470024E-1,1.993799955E-2,1.227469966E-1
9.339727700E-1,-1.116470024E-1,1.993799955E-2,1.227469966E-1
9.479789050E-1,-8.491899818E-2,6.879899651E-2,1.757970005E-1
9.619842080E-1,-9.738100320E-2,8.908099681E-2,2.169290036E-1
9.759903770E-1,-9.738100320E-2,8.908099681E-2,2.169290036E-1
9.899972230E-1,-9.898299724E-2,6.843300164E-2,2.120829970E-1
1.004003396E0,-7.427500188E-2,5.466800183E-2,2.055149972E-1
1.018008785E0,-7.427500188E-2,5.466800183E-2,2.055149972E-1
1.032014828E0,-9.805600345E-2,7.767699659E-2,1.739120036E-1
1.046021746E0,-1.065339968E-1,4.121299833E-2,1.865150034E-1
1.060027828E0,-1.253699958E-1,-3.601599857E-2,1.641449928E-1
1.074033203E0,-1.253699958E-1,-3.601599857E-2,1.641449928E-1
1.088039338E0,-5.502400175E-2,1.479099970E-2,2.441979945E-1
1.102046165E0,-6.385800242E-2,9.950000094E-4,2.328370064E-1
1.116052300E0,-6.385800242E-2,9.950000094E-4,2.328370064E-1
1.130057598E0,1.323700044E-2,-5.111600086E-2,3.004640043E-1
1.144063781E0,2.338399924E-2,-3.777699918E-2,3.010469973E-1
1.158070612E0,2.338399924E-2,-3.777699918E-2,3.010469973E-1
1.172076771E0,7.730999961E-3,5.938000046E-3,2.224580050E-1
1.186082078E0,-6.580600142E-2,1.025099959E-2,1.870599985E-1
1.200088232E0,-6.837099791E-2,8.856900036E-2,1.179070026E-1
1.214095035E0,-6.837099791E-2,8.856900036E-2,1.179070026E-1
1.228101174E0,-2.062399983E-1,3.360399976E-2,1.505640000E-1
1.242106607E0,-2.201810032E-1,-2.621399984E-2,2.169270068E-1
1.256112679E0,-2.201810032E-1,-2.621399984E-2,2.169270068E-1
1.270119582E0,-5.152799934E-2,1.229800005E-2,3.260659873E-1
1.284125640E0,-4.237699881E-2,9.682500362E-2,3.046210110E-1
1.298131015E0,-4.237699881E-2,9.682500362E-2,3.046210110E-1
1.312137097E0,-7.180599868E-2,2.071820050E-1,1.969430000E-1
1.326144010E0,-1.100040004E-1,2.397850007E-1,1.454419941E-1
1.340150078E0,-3.955100104E-2,7.144600153E-2,2.126809955E-1
1.354155462E0,-3.955100104E-2,7.144600153E-2,2.126809955E-1
1.368161649E0,9.018699825E-2,-1.852079928E-1,2.010210007E-1
1.382168529E0,6.882400066E-2,-2.693969905E-1,2.567389905E-1
1.396174688E0,6.882400066E-2,-2.693969905E-1,2.567389905E-1
1.410180001E0,2.500999952E-3,-2.378299981E-1,3.144420087E-1
1.424186150E0,-4.921500012E-2,-8.080600202E-2,2.388170063E-1
1.438193024E0,-4.921500012E-2,-8.080600202E-2,2.388170063E-1
1.452199193E0,-6.537199765E-2,6.012399867E-2,1.621389985E-1
1.466204520E0,-4.377299920E-2,7.608500123E-2,1.627109945E-1
1.480210665E0,-2.224499919E-2,1.452399977E-2,2.064760029E-1
1.494217525E0,-2.224499919E-2,1.452399977E-2,2.064760029E-1
1.508223703E0,-7.513400167E-2,2.615199983E-2,2.314250022E-1
1.522229087E0,-4.308599979E-2,5.660999939E-2,2.133180052E-1
1.536235198E0,-4.308599979E-2,5.660999939E-2,2.133180052E-1
1.550242135E0,-4.349799827E-2,3.209999995E-3,1.008559987E-1
1.564248212E0,-2.835799940E-2,2.429700084E-2,1.287900060E-1
1.578253582E0,-2.835799940E-2,2.429700084E-2,1.287900060E-1
1.592259669E0,-2.411999926E-2,6.711100042E-2,2.398869991E-1
1.606266592E0,-1.188109964E-1,3.417999949E-3,2.302719951E-1
1.620272654E0,-1.039140001E-1,-3.209500015E-2,2.977139950E-1
1.634278025E0,-1.039140001E-1,-3.209500015E-2,2.977139950E-1
1.648284168E0,-1.078429967E-1,-8.335500211E-2,3.964979947E-1
1.662290982E0,-6.451299787E-2,-4.238199815E-2,1.922059953E-1
1.676297126E0,-6.451299787E-2,-4.238199815E-2,1.922059953E-1
1.690302428E0,-3.213199973E-2,-1.541099977E-2,8.733899891E-2
1.704308587E0,2.469599992E-2,4.109200090E-2,1.760469973E-1
1.718315428E0,2.469599992E-2,4.109200090E-2,1.760469973E-1
1.732321582E0,3.515499830E-2,5.141200125E-2,2.437749952E-1
1.746326837E0,-1.084899995E-2,1.988299936E-2,2.444349974E-1
1.760332986E0,-2.310300060E-2,6.142000202E-3,2.089439929E-1
1.774339818E0,-2.310300060E-2,6.142000202E-3,2.089439929E-1
1.788345938E0,-2.983899973E-2,-1.197300013E-2,2.145240009E-1
1.802351304E0,-3.551699966E-2,3.715999890E-3,2.220620066E-1
1.816357361E0,-3.551699966E-2,3.715999890E-3,2.220620066E-1
1.830364280E0,-3.583600000E-2,-8.775000460E-3,2.585810125E-1
1.844370361E0,-3.925099969E-2,-1.306900010E-2,2.857109904E-1
1.858375745E0,-3.925099969E-2,-1.306900010E-2,2.857109904E-1
1.872381813E0,-6.015900150E-2,-1.758000068E-2,2.327540070E-1
1.886388693E0,-6.746000051E-2,-1.668000035E-2,1.555559933E-1
1.900394780E0,-1.995900087E-2,1.041499991E-2,2.305620015E-1
1.914400160E0,-1.995900087E-2,1.041499991E-2,2.305620015E-1
1.928406237E0,-5.323500186E-2,-1.963000046E-3,1.895460039E-1
1.942413126E0,-7.748600096E-2,1.263299957E-2,2.469930053E-1
1.956419213E0,-7.748600096E-2,1.263299957E-2,2.469930053E-1
1.970424603E0,-4.700899869E-2,5.202000029E-3,2.237160057E-1
1.984430646E0,-2.031899989E-2,1.027199998E-2,2.415219992E-1
1.998437574E0,-2.031899989E-2,1.027199998E-2,2.415219992E-1
2.012443665E0,-3.171100095E-2,-1.090599969E-2,2.159889936E-1
2.026449059E0,-3.536500037E-2,5.353000015E-3,2.283859998E-1
2.040455208E0,-1.358500030E-2,-1.119599957E-2,2.097699940E-1
2.054462069E0,-1.358500030E-2,-1.119599957E-2,2.097699940E-1
2.068468155E0,-4.000000190E-3,-7.056000177E-3,1.950879991E-1
2.082473569E0,-3.046300076E-2,-3.779999970E-4,2.073349953E-1
2.096479761E0,-3.046300076E-2,-3.779999970E-4,2.073349953E-1
2.110486612E0,-1.171999983E-2,4.490000196E-3,2.106139958E-1
2.124492781E0,1.056000032E-2,-2.039399929E-2,2.659569979E-1
2.138498113E0,1.056000032E-2,-2.039399929E-2,2.659569979E-1
2.152504275E0,4.765999969E-3,-1.192600001E-2,2.592009902E-1
2.166511141E0,-3.606899828E-2,-3.253000090E-3,2.273059934E-1
2.180517295E0,-3.664999828E-2,1.593000023E-3,1.994249970E-1
2.194522732E0,-3.664999828E-2,1.593000023E-3,1.994249970E-1
2.208528843E0,-4.820499942E-2,3.445999930E-3,2.017160058E-1
2.222535717E0,-2.309199981E-2,3.250000067E-3,2.210099995E-1
2.236541875E0,-2.309199981E-2,3.250000067E-3,2.210099995E-1
2.250547284E0,-2.381400019E-2,-1.375100017E-2,2.213380039E-1
2.264553371E0,-4.219099879E-2,8.580000140E-4,1.818020046E-1
2.278560222E0,-4.219099879E-2,8.580000140E-4,1.818020046E-1
2.292566385E0,-2.746699937E-2,1.167799998E-2,2.154369950E-1
2.306571785E0,-5.343599990E-2,-1.549999975E-2,1.919910014E-1
2.320577861E0,-7.095800340E-2,1.520599984E-2,1.833160073E-1
2.334584761E0,-7.095800340E-2,1.520599984E-2,1.833160073E-1
2.348590814E0,-1.133299991E-2,2.711299993E-2,1.739829928E-1
2.362596212E0,-6.086099893E-2,-1.062999945E-3,1.980800033E-1
2.376602289E0,-6.086099893E-2,-1.062999945E-3,1.980800033E-1
2.390609202E0,-2.531000040E-2,-1.304700039E-2,1.879809946E-1
2.404615270E0,-7.854999974E-3,-8.466999978E-2,4.295459986E-1
2.418620621E0,-7.854999974E-3,-8.466999978E-2,4.295459986E-1
2.432626622E0,-2.717100084E-2,-6.521300226E-2,2.828400135E-1
2.446633559E0,-1.909100078E-2,-1.755500026E-2,1.054989994E-1
2.460639627E0,3.119999892E-4,2.567500062E-2,1.145050004E-1
2.474644997E0,3.119999892E-4,2.567500062E-2,1.145050004E-1
2.488651160E0,-3.750999924E-3,2.396200038E-2,2.087830007E-1
2.502658002E0,-1.667699963E-2,1.048200019E-2,2.450010031E-1
2.516664145E0,-1.667699963E-2,1.048200019E-2,2.450010031E-1
2.530669453E0,-1.952999970E-3,9.599000216E-3,2.381689996E-1
2.544675655E0,2.659999882E-4,1.210299972E-2,2.502509952E-1
2.558682506E0,2.659999882E-4,1.210299972E-2,2.502509952E-1
2.572688631E0,-3.031000029E-3,-2.461999888E-3,2.146030068E-1
2.586693939E0,-5.915000103E-3,-2.757799998E-2,2.340520024E-1
2.600700108E0,-2.887799963E-2,-6.120000035E-2,2.001290023E-1
2.614706929E0,-2.887799963E-2,-6.120000035E-2,2.001290023E-1
2.628713131E0,-1.157699991E-2,-1.657499932E-2,2.603859901E-1
2.642718468E0,-1.916499995E-2,-9.730000049E-3,1.643169969E-1
2.656724607E0,-1.916499995E-2,-9.730000049E-3,1.643169969E-1
2.670731449E0,3.159999906E-4,8.320000023E-3,2.154709995E-1
2.684737598E0,8.465000428E-3,-1.044300012E-2,1.865279973E-1
2.698742919E0,8.465000428E-3,-1.044300012E-2,1.865279973E-1
2.712749093E0,-2.774400078E-2,-2.834199928E-2,2.300949991E-1
2.726755953E0,-6.360799819E-2,-2.146299928E-2,2.308939993E-1
2.740762097E0,-3.059099987E-2,-9.716000408E-3,2.216739953E-1
2.754767467E0,-3.059099987E-2,-9.716000408E-3,2.216739953E-1
2.768773520E0,-3.453399986E-2,5.779999774E-3,2.375939935E-1
2.782780366E0,-3.198900074E-2,1.335200015E-2,2.022040039E-1
2.796786510E0,-3.198900074E-2,1.335200015E-2,2.022040039E-1
2.810791918E0,-2.157199942E-2,9.305999614E-3,2.266969979E-1
2.824798029E0,4.714999814E-3,-2.856400050E-2,2.170210034E-1
2.838804842E0,4.714999814E-3,-2.856400050E-2,2.170210034E-1
2.852810987E0,-1.233199984E-2,-3.408800066E-2,2.484109998E-1
2.866816371E0,-7.926000282E-3,-2.268899977E-2,2.326209992E-1
2.880822443E0,2.709999972E-4,-2.681999933E-3,2.087659985E-1
2.894829284E0,2.709999972E-4,-2.681999933E-3,2.087659985E-1
2.908835438E0,-2.538900077E-2,-3.680000082E-3,2.278929949E-1
2.922840794E0,-2.864800021E-2,-3.675699979E-2,2.160159945E-1
2.936846861E0,-2.864800021E-2,-3.675699979E-2,2.160159945E-1
2.950853731E0,-2.270700037E-2,-4.479299858E-2,2.251500040E-1
2.964859847E0,-2.563799918E-2,-2.977900021E-2,1.992940009E-1
2.978865218E0,-2.563799918E-2,-2.977900021E-2,1.992940009E-1
2.992871356E0,-1.899000024E-3,-1.121999975E-2,1.945369989E-1
3.006878203E0,-1.410099957E-2,-2.039999963E-4,1.928550005E-1
3.020884342E0,-1.950800046E-2,4.989000037E-3,2.261980027E-1
3.034889722E0,-1.950800046E-2,4.989000037E-3,2.261980027E-1
3.048895813E0,1.273200009E-2,-1.504100021E-2,2.508170009E-1
3.062902750E0,-1.151499990E-2,-2.749999985E-4,2.352560014E-1
3.076908818E0,-1.151499990E-2,-2.749999985E-4,2.352560014E-1
3.090914222E0,-1.080400031E-2,-1.150999963E-2,2.253919989E-1
3.104920309E0,9.682999924E-3,-9.556000121E-3,2.133930027E-1
3.118927193E0,9.682999924E-3,-9.556000121E-3,2.133930027E-1
3.132933289E0,-4.970999900E-3,-2.561100014E-2,1.995519996E-1
3.146938703E0,-9.200000204E-5,-4.689999914E-4,2.087710053E-1
3.160944755E0,9.863999672E-3,4.279999994E-4,2.642540038E-1
3.174951727E0,9.863999672E-3,4.279999994E-4,2.642540038E-1
3.188957804E0,-5.045099929E-2,-4.614400119E-2,1.711010039E-1
3.202963198E0,-4.464099929E-2,-3.194399923E-2,2.257210016E-1
3.216969241E0,-4.464099929E-2,-3.194399923E-2,2.257210016E-1
3.230976164E0,4.385000095E-3,4.082600027E-2,1.926780045E-1
3.244982255E0,-4.095999897E-2,-1.272699982E-2,1.940629929E-1
3.258987640E0,-4.095999897E-2,-1.272699982E-2,1.940629929E-1
3.272993727E0,2.370399982E-2,-4.538400099E-2,3.034330010E-1
3.287000655E0,-2.340899967E-2,-8.955900371E-2,4.364269972E-1
3.301006722E0,-5.055600032E-2,-5.974800140E-2,2.321060002E-1
3.315012097E0,-5.055600032E-2,-5.974800140E-2,2.321060002E-1
3.329018193E0,-1.366200019E-2,1.796000055E-3,5.822400004E-2
3.343025107E0,7.588000037E-3,2.368300036E-2,1.588400006E-1
3.357031146E0,7.588000037E-3,2.368300036E-2,1.588400006E-1
3.371036515E0,-1.018999959E-3,-1.089899987E-2,2.425609976E-1
3.385042601E0,-1.147899963E-2,5.159999710E-4,2.851459980E-1
3.399049520E0,-1.147899963E-2,5.159999710E-4,2.851459980E-1
3.413055611E0,-1.116599981E-2,-2.883000067E-3,2.576189935E-1
3.427061006E0,-2.094599977E-2,9.641000070E-3,2.122170031E-1
3.441067092E0,-3.391399980E-2,4.732000176E-3,1.859010011E-1
3.455074001E0,-3.391399980E-2,4.732000176E-3,1.859010011E-1
3.469080068E0,-1.445700042E-2,-2.725199983E-2,2.087559998E-1
3.483085448E0,-3.663099930E-2,-6.669399887E-2,2.042520046E-1
3.497091601E0,-3.663099930E-2,-6.669399887E-2,2.042520046E-1
3.511098434E0,-3.996200114E-2,-1.827099919E-2,2.419829965E-1
3.525104496E0,-1.520099957E-2,-1.423799992E-2,1.523080021E-1
3.539109880E0,-1.520099957E-2,-1.423799992E-2,1.523080021E-1
3.553115938E0,1.817999966E-2,4.176999908E-3,2.268970013E-1
3.567122876E0,-1.744100079E-2,-2.923800051E-2,2.115660012E-1
3.581128953E0,-5.057000089E-3,-2.223699912E-2,2.576279938E-1
3.595134362E0,-5.057000089E-3,-2.223699912E-2,2.576279938E-1
3.609140531E0,-5.739999935E-3,-2.508899942E-2,2.119850069E-1
3.623147362E0,-1.888000057E-3,-5.987000186E-3,2.123450041E-1
3.637153434E0,-1.888000057E-3,-5.987000186E-3,2.123450041E-1
3.651158791E0,-3.437000141E-2,-9.464000352E-3,2.055899948E-1
3.665164958E0,-3.581399843E-2,1.369499974E-2,2.108000070E-1
3.679171814E0,-3.581399843E-2,1.369499974E-2,2.108000070E-1
3.693177896E0,-5.067999940E-3,-1.880200021E-2,2.160290033E-1
3.707183290E0,1.431499980E-2,-6.829000078E-3,2.110130042E-1
3.721189468E0,-1.816900074E-2,1.034600008E-2,1.920309961E-1
3.735196323E0,-1.816900074E-2,1.034600008E-2,1.920309961E-1
3.749202405E0,-7.903000340E-3,-9.654999711E-3,1.631540060E-1
3.763207795E0,-4.887999967E-3,-1.991000026E-2,1.803890020E-1
3.777213954E0,-4.887999967E-3,-1.991000026E-2,1.803890020E-1
3.791220776E0,1.111999969E-3,-2.712499909E-2,1.808049977E-1
3.805226877E0,-1.138199959E-2,-4.365200177E-2,2.021819949E-1
3.819232233E0,-1.138199959E-2,-4.365200177E-2,2.021819949E-1
3.833238291E0,-2.150899917E-2,-1.418500021E-2,2.007029951E-1
3.847245209E0,-2.297900058E-2,-7.818000391E-3,2.182050049E-1
3.861251266E0,-7.869999856E-3,-1.623399928E-2,2.067340016E-1
3.875256598E0,-7.869999856E-3,-1.623399928E-2,2.067340016E-1
3.889262665E0,8.162000217E-3,-1.920700073E-2,2.333700061E-1
3.903269588E0,4.395000171E-3,-1.357400045E-2,2.749480009E-1
3.917275660E0,4.395000171E-3,-1.357400045E-2,2.749480009E-1
3.931281050E0,1.201099996E-2,-1.613299921E-2,2.583459914E-1
3.945287146E0,1.543200016E-2,-9.495000355E-3,2.226310074E-1
3.959294050E0,1.543200016E-2,-9.495000355E-3,2.226310074E-1
3.973300117E0,1.462499984E-2,4.509999882E-3,2.732529938E-1
3.987305497E0,-5.052699894E-2,-2.271700092E-2,1.131609976E-1
4.001311603E0,-2.542600036E-2,-1.030899957E-2,1.492989957E-1
4.015318487E0,-2.542600036E-2,-1.030899957E-2,1.492989957E-1
4.029324549E0,2.261500061E-2,3.300999990E-3,2.257239968E-1
4.043329957E0,-4.868499935E-2,-2.670199983E-2,1.684460044E-1
4.057336034E0,-4.868499935E-2,-2.670199983E-2,1.684460044E-1
4.071342957E0,-7.842999883E-3,-6.051199883E-2,2.902770042E-1
4.085349082E0,-1.200999971E-2,-7.787699997E-2,3.597030044E-1
4.099354467E0,-1.200999971E-2,-7.787699997E-2,3.597030044E-1
4.113360549E0,-1.871700026E-2,-4.184700176E-2,1.550790071E-1
4.127367462E0,-1.454500016E-2,-3.608600050E-2,9.020300210E-2
4.141373535E0,1.075000037E-2,8.117999882E-3,1.846809983E-1
4.155378929E0,1.075000037E-2,8.117999882E-3,1.846809983E-1
4.169385035E0,5.388999823E-3,1.700000023E-3,2.282080054E-1
4.183391992E0,9.739000350E-3,1.146099996E-2,2.336360067E-1
4.197398069E0,9.739000350E-3,1.146099996E-2,2.336360067E-1
4.211403433E0,-6.725000218E-3,9.800000116E-3,2.310180068E-1
4.225409505E0,-1.856799982E-2,2.190000005E-2,2.035170048E-1
4.239416366E0,-1.856799982E-2,2.190000005E-2,2.035170048E-1
4.253422529E0,-3.286800161E-2,-1.272900030E-2,2.185329944E-1
4.267427919E0,-2.301299945E-2,-5.241199955E-2,2.313860059E-1
4.281433977E0,-1.191799995E-2,-6.936500221E-2,2.317530066E-1
4.295440813E0,-1.191799995E-2,-6.936500221E-2,2.317530066E-1
4.309446957E0,-1.803899929E-2,-3.004799969E-2,2.562699914E-1
4.323452333E0,1.324099954E-2,-8.620999753E-3,1.602910012E-1
4.337458395E0,1.324099954E-2,-8.620999753E-3,1.602910012E-1
4.351465203E0,3.428599983E-2,-6.707999855E-3,1.986020058E-1
4.365471342E0,1.579000033E-3,-3.821099922E-2,2.088840008E-1
4.379476707E0,1.579000033E-3,-3.821099922E-2,2.088840008E-1
4.393482774E0,-1.386300009E-2,-3.934000060E-2,2.219199985E-1
4.407489611E0,-1.891900040E-2,-2.395899966E-2,1.889970005E-1
4.421495789E0,-1.833499968E-2,-1.932200044E-2,2.141319960E-1
4.435501102E0,-1.833499968E-2,-1.932200044E-2,2.141319960E-1
4.449507241E0,-3.307199851E-2,-6.053000223E-3,2.342060059E-1
4.463514064E0,-1.768299937E-2,-2.551499940E-2,2.713499963E-1
4.477520204E0,-1.768299937E-2,-2.551499940E-2,2.713499963E-1
4.491525549E0,7.029999979E-3,-3.643099964E-2,2.560409904E-1
4.505531722E0,-2.964999992E-3,-1.852199994E-2,2.085240036E-1
4.519538568E0,-2.964999992E-3,-1.852199994E-2,2.085240036E-1
4.533544751E0,-2.466299944E-2,-5.975999869E-3,1.991019994E-1
4.547550077E0,-4.335000180E-3,-5.537000019E-3,1.904949993E-1
4.561556226E0,-3.340300173E-2,-2.474199980E-2,2.069420069E-1
4.575563087E0,-3.340300173E-2,-2.474199980E-2,2.069420069E-1
4.589569246E0,-1.308900025E-2,-3.133799881E-2,2.343309969E-1
4.603574539E0,-9.008999914E-3,-4.861199856E-2,2.387710065E-1
4.617580674E0,-9.008999914E-3,-4.861199856E-2,2.387710065E-1
4.631587534E0,-1.160500012E-2,-3.176200017E-2,2.300699949E-1
4.645593631E0,-1.104099955E-2,-4.731399938E-2,2.252860069E-1
4.659599055E0,-1.104099955E-2,-4.731399938E-2,2.252860069E-1
4.673605204E0,5.700000111E-5,-2.753599919E-2,2.187370062E-1
4.687612040E0,-1.408199966E-2,-2.528299950E-2,2.241149992E-1
4.701618108E0,-1.681599952E-2,-3.324000165E-2,2.334650010E-1
4.715623487E0,-1.681599952E-2,-3.324000165E-2,2.334650010E-1
4.729629583E0,-1.733000041E-3,-1.679800078E-2,2.317090034E-1
4.743636525E0,-1.261899993E-2,3.426000010E-3,2.339009941E-1
4.757642597E0,-1.261899993E-2,3.426000010E-3,2.339009941E-1
4.771648006E0,-1.407499984E-2,-7.670000196E-3,2.340269983E-1
4.785654074E0,-2.898100019E-2,-4.360400140E-2,2.130209953E-1
4.799661001E0,-2.898100019E-2,-4.360400140E-2,2.130209953E-1
4.813667093E0,-1.977499947E-2,-1.418299973E-2,2.147579938E-1
4.827672483E0,-1.276499964E-2,-3.192399815E-2,1.976329982E-1
4.841678521E0,-1.116499957E-2,-2.526899986E-2,2.056030035E-1
4.855685459E0,-1.116499957E-2,-2.526899986E-2,2.056030035E-1
4.869691535E0,-4.710000067E-4,-1.864499971E-2,2.198909968E-1
4.883696948E0,-2.590800077E-2,-5.630100146E-2,1.425479949E-1
4.897703054E0,-2.590800077E-2,-5.630100146E-2,1.425479949E-1
4.911709973E0,-1.036399975E-2,-3.157600015E-2,1.782290041E-1
4.925716102E0,2.668599971E-2,9.535999969E-3,2.170619965E-1
4.939721482E0,2.668599971E-2,9.535999969E-3,2.170619965E-1
4.953727574E0,-4.746599868E-2,-2.664799988E-2,1.170919985E-1
4.967734425E0,-1.196000027E-3,-5.068099871E-2,2.747179866E-1
4.981740564E0,-2.615999896E-3,-1.116840020E-1,3.890219927E-1
4.995745877E0,-2.615999896E-3,-1.116840020E-1,3.890219927E-1
5.009752031E0,-1.188699994E-2,-9.129499644E-2,2.160969973E-1
5.023758877E0,-1.361100003E-2,-5.050599948E-2,1.007340029E-1
5.037765055E0,-1.361100003E-2,-5.050599948E-2,1.007340029E-1
5.051770377E0,1.536300033E-2,-9.072000161E-3,1.727689952E-1
5.065776500E0,-5.903999787E-3,-2.625299990E-2,2.246980071E-1
5.079783343E0,-5.903999787E-3,-2.625299990E-2,2.246980071E-1
5.093789515E0,-4.139999859E-3,-2.594700083E-2,2.464109957E-1
5.107794794E0,-1.320500020E-2,-3.175000101E-2,2.391279936E-1
5.121800938E0,-9.472999722E-3,-4.297000170E-2,2.359399945E-1
5.135807794E0,-9.472999722E-3,-4.297000170E-2,2.359399945E-1
5.149813943E0,-4.325999878E-3,-6.638000160E-2,2.357079983E-1
5.163819246E0,-3.216800094E-2,-1.035490036E-1,2.553690076E-1
5.177825391E0,-3.216800094E-2,-1.035490036E-1,2.553690076E-1
5.191832261E0,-1.997599937E-2,-1.117559969E-1,2.135670036E-1
5.205838323E0,-3.205999965E-3,-5.631500110E-2,2.438109964E-1
5.219843694E0,-3.205999965E-3,-5.631500110E-2,2.438109964E-1
5.233849847E0,-6.597999949E-3,-4.580099881E-2,1.583919972E-1
5.247856703E0,-7.213999983E-3,-4.504900053E-2,1.983599961E-1
5.261862785E0,-2.966099977E-2,-6.734699756E-2,1.713639945E-1
5.275868184E0,-2.966099977E-2,-6.734699756E-2,1.713639945E-1
5.289874338E0,-1.989400014E-2,-9.306699783E-2,2.018119991E-1
5.303881175E0,-1.808400080E-2,-9.266100079E-2,2.139129937E-1
5.317887256E0,-1.808400080E-2,-9.266100079E-2,2.139129937E-1
5.331892646E0,-5.911000073E-3,-7.302200049E-2,2.230589986E-1
5.345898713E0,-2.133099921E-2,-8.270999789E-2,2.399770021E-1
5.359905627E0,-6.204999983E-3,-6.533700228E-2,2.497750074E-1
5.373911704E0,-6.204999983E-3,-6.533700228E-2,2.497750074E-1
5.387917118E0,1.416500006E-2,-8.943200111E-2,2.064629942E-1
5.401923166E0,1.459500007E-2,-8.478700370E-2,1.980919987E-1
5.415930103E0,1.459500007E-2,-8.478700370E-2,1.980919987E-1
5.429936185E0,3.084399924E-2,-9.011200070E-2,2.505410016E-1
5.443941564E0,1.802000031E-2,-1.080870032E-1,2.635639906E-1
5.457947607E0,1.802000031E-2,-1.080870032E-1,2.635639906E-1
5.471954443E0,2.085999958E-2,-1.011679992E-1,2.467669994E-1
5.485960573E0,1.031000051E-3,-6.604400277E-2,1.948529929E-1
5.499965861E0,-3.051500022E-2,-9.598299861E-2,1.819179952E-1
5.513972001E0,-3.051500022E-2,-9.598299861E-2,1.819179952E-1
5.527978842E0,-1.399500016E-2,-9.951700270E-2,2.050330043E-1
5.541984996E0,-3.509499878E-2,-9.325999767E-2,2.091239989E-1
5.555990304E0,-3.509499878E-2,-9.325999767E-2,2.091239989E-1
5.569996458E0,-2.270700037E-2,-1.095779985E-1,2.134529948E-1
5.584003294E0,5.783000030E-3,-9.825900197E-2,2.125730067E-1
5.598009429E0,5.783000030E-3,-9.825900197E-2,2.125730067E-1
5.612014750E0,-5.698000081E-3,-8.370900154E-2,2.138890028E-1
5.626020900E0,2.649999922E-3,-8.857800066E-2,2.281379998E-1
5.640027736E0,4.780000076E-3,-9.286600351E-2,2.124760002E-1
5.654033842E0,4.780000076E-3,-9.286600351E-2,2.124760002E-1
5.668039207E0,-1.029899996E-2,-1.165620014E-1,2.167270035E-1
5.682045295E0,-1.379499957E-2,-1.195629984E-1,2.139459997E-1
5.696052247E0,-1.379499957E-2,-1.195629984E-1,2.139459997E-1
5.710058329E0,-2.111699991E-2,-9.572499990E-2,2.151460052E-1
5.724063728E0,-1.401000004E-2,-1.068100035E-1,1.952169985E-1
5.738069805E0,-1.401000004E-2,-1.068100035E-1,1.952169985E-1
5.752076747E0,-9.734000079E-3,-1.177619994E-1,2.156410068E-1
5.766082824E0,1.445399970E-2,-8.590099961E-2,2.233189940E-1
5.780088218E0,-3.380500153E-2,-1.176159978E-1,2.005179971E-1
5.794094290E0,-3.380500153E-2,-1.176159978E-1,2.005179971E-1
5.808101203E0,-2.834399976E-2,-9.907399863E-2,1.799879968E-1
5.822107285E0,1.683099940E-2,-7.738000154E-2,1.720370054E-1
5.836112675E0,1.683099940E-2,-7.738000154E-2,1.720370054E-1
5.850118761E0,-3.352399915E-2,-9.577400237E-2,1.917359978E-1
5.864125607E0,1.473900024E-2,-1.326690018E-1,2.810649872E-1
5.878131757E0,1.473900024E-2,-1.326690018E-1,2.810649872E-1
5.892137068E0,-4.776999820E-3,-1.508810073E-1,3.773649931E-1
5.906143208E0,-1.927199960E-2,-1.752430052E-1,1.982229948E-1
5.920150054E0,-1.823800057E-2,-1.311679929E-1,5.626999773E-3
5.934156184E0,-1.823800057E-2,-1.311679929E-1,5.626999773E-3
5.948161496E0,1.743599959E-2,-7.112800330E-2,1.335639954E-1
5.962167630E0,1.408800017E-2,-7.605499774E-2,2.307959944E-1
5.976174472E0,1.408800017E-2,-7.605499774E-2,2.307959944E-1
5.990180602E0,-2.959999954E-3,-7.719799876E-2,2.488840073E-1
6.004185920E0,1.170999953E-3,-1.037229970E-1,2.095199972E-1
6.018192087E0,1.170999953E-3,-1.037229970E-1,2.095199972E-1
6.032198915E0,8.210999891E-3,-9.849700332E-2,1.945690066E-1
6.046204987E0,5.255000200E-3,-9.726200253E-2,1.697439998E-1
6.060210386E0,-5.309999920E-3,-1.156089976E-1,2.051279992E-1
6.074216454E0,-5.309999920E-3,-1.156089976E-1,2.051279992E-1
6.088223386E0,-1.197300013E-2,-1.717890054E-1,2.227610052E-1
6.102229420E0,-2.814099938E-2,-1.197500005E-1,2.479179949E-1
6.116234804E0,-2.814099938E-2,-1.197500005E-1,2.479179949E-1
6.130240872E0,-5.036000162E-3,-1.232940033E-1,1.486759931E-1
6.144247796E0,2.169100009E-2,-1.128320023E-1,1.925279945E-1
6.158253896E0,2.169100009E-2,-1.128320023E-1,1.925279945E-1
6.172259242E0,1.157999970E-3,-1.167439967E-1,1.607909948E-1
6.186265319E0,-8.975000121E-3,-1.054259986E-1,2.203660011E-1
6.200272266E0,-1.575399935E-2,-1.245070025E-1,2.151090056E-1
6.214278314E0,-1.575399935E-2,-1.245070025E-1,2.151090056E-1
6.228283598E0,3.266999964E-3,-1.106730029E-1,2.557620108E-1
6.242289738E0,-2.466999926E-2,-9.743399918E-2,2.364130020E-1
6.256296588E0,-2.466999926E-2,-9.743399918E-2,2.364130020E-1
6.270302733E0,-2.937000059E-2,-8.939599991E-2,2.139289975E-1
6.284308045E0,1.379599981E-2,-1.095430031E-1,1.561149955E-1
6.298314170E0,1.379599981E-2,-1.095430031E-1,1.561149955E-1
6.312321070E0,1.390300039E-2,-1.243079975E-1,1.144850031E-1
6.326327207E0,-1.600999967E-3,-9.923099726E-2,1.092009991E-1
6.340332520E0,1.257199980E-2,-1.153390035E-1,6.428299844E-2
6.354338660E0,1.257199980E-2,-1.153390035E-1,6.428299844E-2
6.368345486E0,4.282999784E-3,-1.350740045E-1,1.178620011E-1
6.382351587E0,-1.030199975E-2,-1.414970011E-1,1.776109934E-1
6.396356958E0,-1.030199975E-2,-1.414970011E-1,1.776109934E-1
6.410363035E0,6.386999972E-3,-1.669780016E-1,1.903419942E-1
6.424369939E0,-1.111999992E-2,-1.549479961E-1,2.150049955E-1
6.438376035E0,-1.111999992E-2,-1.549479961E-1,2.150049955E-1
6.452381434E0,-2.040299959E-2,-1.530739963E-1,2.275210023E-1
6.466387497E0,-1.945500076E-2,-1.297290027E-1,2.360869944E-1
6.480394439E0,-8.522000164E-3,-1.325570047E-1,2.146310061E-1
6.494400501E0,-8.522000164E-3,-1.325570047E-1,2.146310061E-1
6.508405900E0,8.654000238E-3,-1.199800000E-1,2.051199973E-1
6.522411972E0,-2.231999999E-3,-1.145519987E-1,2.054720074E-1
6.536418833E0,-2.231999999E-3,-1.145519987E-1,2.054720074E-1
6.550424973E0,-5.878000055E-3,-1.105550006E-1,1.897709966E-1
6.564430305E0,1.897400059E-2,-9.204199910E-2,2.284040004E-1
6.578436430E0,1.897400059E-2,-9.204199910E-2,2.284040004E-1
6.592443285E0,-2.517299913E-2,-1.347209960E-1,1.563870013E-1
6.606449415E0,-4.459999909E-4,-1.177790016E-1,1.614319980E-1
6.620454709E0,4.353399947E-2,-1.156449988E-1,1.426109970E-1
6.634460877E0,4.353399947E-2,-1.156449988E-1,1.426109970E-1
6.648467704E0,-2.697400004E-2,-1.664379984E-1,1.873909980E-1
6.662473791E0,3.556400165E-2,-1.902620047E-1,2.693659961E-1
6.676479170E0,3.556400165E-2,-1.902620047E-1,2.693659961E-1
6.690485227E0,-2.286400087E-2,-2.052060068E-1,3.789550066E-1
6.704492170E0,-2.308199927E-2,-1.645070016E-1,1.959560066E-1
6.718498256E0,-2.308199927E-2,-1.645070016E-1,1.959560066E-1
6.732503632E0,-4.039200023E-2,-1.426559985E-1,5.163900182E-2
6.746509713E0,1.426899992E-2,-9.840899706E-2,1.117639989E-1
6.760516578E0,8.728999645E-3,-9.099700302E-2,2.250239998E-1
6.774522713E0,8.728999645E-3,-9.099700302E-2,2.250239998E-1
6.788528045E0,-1.182600018E-2,-1.001520008E-1,2.581099868E-1
6.802534194E0,9.030000307E-3,-1.072139964E-1,2.170979977E-1
6.816541040E0,9.030000307E-3,-1.072139964E-1,2.170979977E-1
6.830547223E0,4.219000228E-3,-1.089110002E-1,1.721429974E-1
6.844552530E0,-2.240000031E-4,-1.464049965E-1,1.706120074E-1
6.858558674E0,-2.240000031E-4,-1.464049965E-1,1.706120074E-1
6.872565554E0,-1.097199973E-2,-1.417980045E-1,1.992280036E-1
6.886571718E0,-4.476999864E-3,-2.047089934E-1,1.823689938E-1
6.900576992E0,-1.014799997E-2,-1.476960033E-1,2.546319962E-1
6.914583112E0,-1.014799997E-2,-1.476960033E-1,2.546319962E-1
6.928589949E0,-2.689999994E-3,-1.485809982E-1,1.494279951E-1
6.942596002E0,1.074699964E-2,-1.439000070E-1,2.264930010E-1
6.956601372E0,1.074699964E-2,-1.439000070E-1,2.264930010E-1
6.970607440E0,1.263100002E-2,-1.694229990E-1,2.185920030E-1
6.984614343E0,1.585699990E-2,-1.599539965E-1,2.030459940E-1
6.998620391E0,1.585699990E-2,-1.599539965E-1,2.030459940E-1
7.012625771E0,-7.499000058E-3,-1.457459927E-1,1.576759964E-1
7.026631843E0,1.742199995E-2,-1.243029982E-1,1.823440045E-1
7.040638685E0,-1.462300029E-2,-1.114770025E-1,2.329130024E-1
7.054644872E0,-1.462300029E-2,-1.114770025E-1,2.329130024E-1
7.068650189E0,-2.859300002E-2,-1.254670024E-1,2.363909930E-1
7.082656319E0,-3.867000109E-3,-1.602820009E-1,2.315700054E-1
7.096663151E0,-3.867000109E-3,-1.602820009E-1,2.315700054E-1
7.110669266E0,3.309000051E-3,-1.486929953E-1,2.025160044E-1
7.124674680E0,-3.347999975E-2,-1.495389938E-1,2.363830060E-1
7.138680829E0,-3.347999975E-2,-1.495389938E-1,2.363830060E-1
7.152687703E0,-2.791500092E-2,-1.585900038E-1,1.780499965E-1
7.166693791E0,4.732999951E-3,-1.496389955E-1,1.778980047E-1
7.180699195E0,1.037099957E-2,-1.449159980E-1,1.878709942E-1
7.194705276E0,1.037099957E-2,-1.449159980E-1,1.878709942E-1
7.208712243E0,1.883199997E-2,-1.492239982E-1,1.947180033E-1
7.222718305E0,-1.255000010E-3,-1.374990046E-1,1.896989942E-1
7.236723699E0,-1.255000010E-3,-1.374990046E-1,1.896989942E-1
7.250729800E0,1.780899987E-2,-1.307989955E-1,1.566590071E-1
7.264736636E0,2.703299932E-2,-1.665350050E-1,1.706999987E-1
7.278742781E0,2.703299932E-2,-1.665350050E-1,1.706999987E-1
7.292748185E0,-6.550000049E-3,-1.938430071E-1,2.167840004E-1
7.306754291E0,-1.079399977E-2,-1.961989999E-1,2.328480035E-1
7.320761146E0,-2.085799910E-2,-1.998980045E-1,2.088299990E-1
7.334767291E0,-2.085799910E-2,-1.998980045E-1,2.088299990E-1
7.348772599E0,-2.280499972E-2,-1.902090013E-1,2.087939978E-1
7.362778767E0,3.169999924E-3,-1.745920032E-1,1.779280007E-1
7.376785589E0,3.169999924E-3,-1.745920032E-1,1.779280007E-1
7.390791622E0,-4.710000067E-4,-1.039680019E-1,2.172629982E-1
7.404797050E0,3.254000098E-3,2.539000008E-3,2.481369972E-1
7.418803117E0,3.254000098E-3,2.539000008E-3,2.481369972E-1
7.432810069E0,1.158600021E-2,-1.621679962E-1,1.614699960E-1
7.446816164E0,-2.342999913E-2,-9.859500080E-2,1.806540042E-1
7.460821502E0,-5.787999928E-2,-6.467799842E-2,1.470009983E-1
7.474827579E0,-5.787999928E-2,-6.467799842E-2,1.470009983E-1
7.488834492E0,-9.270999581E-3,-9.247100353E-2,1.898480058E-1
7.502840560E0,-1.273000031E-3,-8.945699781E-2,1.736779958E-1
7.516845824E0,-1.273000031E-3,-8.945699781E-2,1.736779958E-1
7.530851959E0,-1.779199950E-2,-1.637330055E-1,1.802819967E-1
7.544858781E0,3.119000047E-2,-2.179619968E-1,2.750419974E-1
7.558864843E0,3.119000047E-2,-2.179619968E-1,2.750419974E-1
7.572870252E0,2.398500033E-2,-2.707099915E-1,4.539690018E-1
7.586876401E0,2.657200024E-2,-2.282579988E-1,2.419420034E-1
7.600883280E0,5.452999845E-3,-2.137240022E-1,5.933000147E-2
7.614889314E0,5.452999845E-3,-2.137240022E-1,5.933000147E-2
7.628894694E0,4.803099856E-2,-1.574809998E-1,1.190489978E-1
7.642900757E0,3.801900148E-2,-1.189059988E-1,2.198379934E-1
7.656907660E0,3.801900148E-2,-1.189059988E-1,2.198379934E-1
7.670913752E0,2.606100030E-2,-1.113670021E-1,2.435040027E-1
7.684919137E0,1.043600030E-2,-1.062700003E-1,2.239989936E-1
7.698925233E0,1.043600030E-2,-1.062700003E-1,2.239989936E-1
7.712932103E0,5.237999838E-3,-6.428699940E-2,1.792169958E-1
7.726938295E0,-2.892600000E-2,-8.141600341E-2,1.767919958E-1
7.740943578E0,-2.316099964E-2,-1.318340003E-1,1.984460056E-1
7.754949789E0,-2.316099964E-2,-1.318340003E-1,1.984460056E-1
7.768956665E0,-1.532000024E-3,-1.693280041E-1,2.133380026E-1
7.782962818E0,1.266200002E-2,-1.426710039E-1,2.537640035E-1
7.796968141E0,1.266200002E-2,-1.426710039E-1,2.537640035E-1
7.810974291E0,-2.292999998E-2,-1.994179934E-1,1.428429931E-1
7.824981141E0,9.073000401E-3,-2.360679954E-1,1.901150048E-1
7.838987242E0,9.073000401E-3,-2.360679954E-1,1.901150048E-1
7.852992618E0,8.407000452E-3,-2.735419869E-1,2.105849981E-1
7.866998719E0,4.759999923E-3,-2.313629985E-1,2.325370014E-1
7.881005642E0,-8.423999883E-3,-1.446570009E-1,1.896619946E-1
7.895011714E0,-8.423999883E-3,-1.446570009E-1,1.896619946E-1
7.909017099E0,-1.584999962E-3,-8.648099750E-2,1.988860071E-1
7.923023170E0,-1.874499954E-2,-1.286589950E-1,2.020470053E-1
7.937030012E0,-1.874499954E-2,-1.286589950E-1,2.020470053E-1
7.951036195E0,-5.990299955E-2,-1.426520050E-1,2.091210037E-1
7.965041502E0,-5.214399844E-2,-1.174499989E-1,2.110310048E-1
7.979047636E0,-5.214399844E-2,-1.174499989E-1,2.110310048E-1
7.993054497E0,-7.970999926E-3,-1.291670054E-1,2.106399983E-1
8.007060656E0,1.491700020E-2,-1.270399988E-1,2.493740022E-1
8.021065973E0,2.960100025E-2,-1.717839986E-1,1.821209937E-1
8.035072146E0,2.960100025E-2,-1.717839986E-1,1.821209937E-1
8.049078968E0,1.087199990E-2,-1.695500016E-1,2.097650021E-1
8.063085069E0,1.691799983E-2,-1.849880069E-1,2.055609971E-1
8.077090435E0,1.691799983E-2,-1.849880069E-1,2.055609971E-1
8.091096531E0,2.133299969E-2,-1.777749956E-1,1.903170049E-1
8.105103454E0,4.281900078E-2,-1.919189990E-1,1.640290022E-1
8.119109498E0,4.281900078E-2,-1.919189990E-1,1.640290022E-1
8.133114843E0,-1.373399980E-2,-1.704639941E-1,1.776719987E-1
8.147120934E0,4.013999831E-3,-1.830859929E-1,1.895669997E-1
8.161127732E0,-1.602200046E-2,-1.802690029E-1,1.895249933E-1
8.175133886E0,-1.602200046E-2,-1.802690029E-1,1.895249933E-1
8.189139199E0,-2.182099968E-2,-1.489239931E-1,1.842969954E-1
8.203145367E0,-7.240000181E-3,-1.450619996E-1,2.081599981E-1
8.217152223E0,-7.240000181E-3,-1.450619996E-1,2.081599981E-1
8.231158290E0,-1.661999966E-3,-1.476500034E-1,2.370949984E-1
8.245163661E0,4.695999902E-3,-1.228709966E-1,2.249619961E-1
8.259169752E0,4.695999902E-3,-1.228709966E-1,2.249619961E-1
8.273176675E0,1.854299940E-2,-1.287090033E-1,2.008509934E-1
8.287182752E0,-3.582499921E-2,-1.624400020E-1,1.764219999E-1
8.301188136E0,-1.549599972E-2,-1.559640020E-1,1.879920065E-1
8.315194228E0,-1.549599972E-2,-1.559640020E-1,1.879920065E-1
8.329201108E0,3.562299907E-2,-1.110619977E-1,1.564919949E-1
8.343207319E0,6.569999969E-4,-1.627070010E-1,2.059900016E-1
8.357212598E0,6.569999969E-4,-1.627070010E-1,2.059900016E-1
8.371218752E0,1.168099977E-2,-1.845680028E-1,2.293179929E-1
8.385225588E0,-2.343500033E-2,-2.062010020E-1,3.963339925E-1
8.399231737E0,-2.343500033E-2,-2.062010020E-1,3.963339925E-1
8.413237031E0,-8.485999890E-3,-2.033849955E-1,2.264669985E-1
8.427243146E0,-4.616000224E-3,-1.670410037E-1,1.063399985E-1
8.441249943E0,-7.362999953E-3,-1.419129968E-1,1.215690002E-1
8.455256006E0,-7.362999953E-3,-1.419129968E-1,1.215690002E-1
8.469261376E0,-6.266999990E-3,-1.116190031E-1,1.788029969E-1
8.483267443E0,4.151000176E-3,-1.121779978E-1,2.138230056E-1
8.497274314E0,4.151000176E-3,-1.121779978E-1,2.138230056E-1
8.511280332E0,2.305600047E-2,-1.122549996E-1,1.861719936E-1
8.525285693E0,2.071199939E-2,-1.061960012E-1,1.786909997E-1
8.539291751E0,2.071199939E-2,-1.061960012E-1,1.786909997E-1
8.553298578E0,-1.018899959E-2,-1.516920030E-1,1.353929937E-1
8.567304732E0,-4.863999784E-3,-1.805569977E-1,9.941399843E-2
8.581310073E0,-3.234599903E-2,-2.108609974E-1,9.748999774E-2
8.595316266E0,-3.234599903E-2,-2.108609974E-1,9.748999774E-2
8.609323102E0,-8.679999970E-3,-1.407810003E-1,1.958560050E-1
8.623329160E0,1.376300026E-2,-1.557829976E-1,1.620250046E-1
8.637334549E0,1.376300026E-2,-1.557829976E-1,1.620250046E-1
8.651340666E0,2.866400033E-2,-1.481290013E-1,1.913290024E-1
8.665347622E0,8.690999821E-3,-1.870329976E-1,2.205989957E-1
8.679353718E0,8.690999821E-3,-1.870329976E-1,2.205989957E-1
8.693359131E0,4.548000172E-3,-1.732610017E-1,2.401510030E-1
8.707365252E0,-4.469300061E-2,-1.835570037E-1,2.337380052E-1
8.721372126E0,3.412999911E-3,-1.575739980E-1,1.982270032E-1
8.735378300E0,3.412999911E-3,-1.575739980E-1,1.982270032E-1
8.749383603E0,4.263000097E-3,-1.229579970E-1,2.126850039E-1
8.763389747E0,-2.741900086E-2,-9.075900167E-2,2.091179937E-1
8.777396598E0,-2.741900086E-2,-9.075900167E-2,2.091179937E-1
8.791402651E0,7.943999954E-3,-1.340769976E-1,1.994719952E-1
8.805408002E0,3.692200035E-2,-1.722210050E-1,1.687009931E-1
8.819414094E0,3.692200035E-2,-1.722210050E-1,1.687009931E-1
8.833421041E0,2.830499969E-2,-1.578339934E-1,2.219869941E-1
8.847427127E0,1.615099981E-2,-1.588730067E-1,2.102279961E-1
8.861432502E0,1.195000019E-2,-1.581020057E-1,1.743209958E-1
8.875438579E0,1.195000019E-2,-1.581020057E-1,1.743209958E-1
8.889445439E0,-2.366700023E-2,-1.831459999E-1,1.814460009E-1
8.903451608E0,-3.809100017E-2,-1.846700013E-1,1.816399992E-1
8.917457006E0,-3.809100017E-2,-1.846700013E-1,1.816399992E-1
8.931463045E0,-1.916999929E-2,-1.793649942E-1,1.939090043E-1
8.945469891E0,-5.888000131E-3,-1.772270054E-1,1.701650023E-1
8.959476065E0,-5.888000131E-3,-1.772270054E-1,1.701650023E-1
8.973481387E0,-5.983999930E-3,-1.498299986E-1,1.965889931E-1
8.987487541E0,6.391000003E-3,-1.432529986E-1,2.281710058E-1
9.001494410E0,3.371000057E-3,-1.435140073E-1,2.008019984E-1
9.015500497E0,3.371000057E-3,-1.435140073E-1,2.008019984E-1
9.029505871E0,4.840999842E-3,-1.255989969E-1,1.865759939E-1
9.043511958E0,-3.491099924E-2,-1.377629936E-1,9.378100187E-2
9.057518885E0,-3.491099924E-2,-1.377629936E-1,9.378100187E-2
9.071524954E0,1.668000035E-2,-1.088339984E-1,1.472149938E-1
9.085530319E0,4.638800025E-2,-9.318000078E-2,1.788350046E-1
9.099536382E0,4.638800025E-2,-9.318000078E-2,1.788350046E-1
9.113543213E0,-9.321999736E-3,-1.777549982E-1,1.829169989E-1
9.127549372E0,1.754299924E-2,-2.251009941E-1,3.319630027E-1
9.141554675E0,-6.444999948E-3,-2.342319936E-1,3.813999891E-1
9.155560848E0,-6.444999948E-3,-2.342319936E-1,3.813999891E-1
9.169567685E0,-5.229999777E-3,-1.821949929E-1,2.206099927E-1
9.183573747E0,1.459699962E-2,-1.725980043E-1,1.460310072E-1
9.197579126E0,1.459699962E-2,-1.725980043E-1,1.460310072E-1
9.211585174E0,1.648100093E-2,-1.143340021E-1,1.787600070E-1
9.225592060E0,-1.104700007E-2,-1.283620000E-1,2.364470065E-1
9.239598108E0,-1.104700007E-2,-1.283620000E-1,2.364470065E-1
9.253603473E0,-4.959999933E-4,-1.261070073E-1,2.548260093E-1
9.267609521E0,-1.402200013E-2,-1.132310033E-1,2.080640048E-1
9.281616386E0,-3.957099840E-2,-1.270660013E-1,1.761869937E-1
9.295622574E0,-3.957099840E-2,-1.270660013E-1,1.761869937E-1
9.309627882E0,-3.465100005E-2,-1.541849971E-1,1.633639932E-1
9.323634060E0,-2.570000070E-4,-1.961790025E-1,1.865990013E-1
9.337640911E0,-2.570000070E-4,-1.961790025E-1,1.865990013E-1
9.351646992E0,1.142599992E-2,-2.087700069E-1,1.476629972E-1
9.365652348E0,8.541000076E-3,-1.701090038E-1,2.138759941E-1
9.379658440E0,8.541000076E-3,-1.701090038E-1,2.138759941E-1
9.393665368E0,-6.434999872E-3,-1.476909965E-1,1.046409979E-1
9.407671454E0,1.073899958E-2,-1.720930040E-1,1.730840057E-1
9.421676843E0,-8.290999569E-3,-1.690720022E-1,1.944860071E-1
9.435682958E0,-8.290999569E-3,-1.690720022E-1,1.944860071E-1
9.449689833E0,-1.011400018E-2,-1.840399951E-1,2.561770082E-1
9.463695987E0,-1.453000028E-2,-1.790859997E-1,2.389419973E-1
9.477701319E0,-1.453000028E-2,-1.790859997E-1,2.389419973E-1
9.491707473E0,6.517000031E-3,-1.623039991E-1,2.366639972E-1
9.505714285E0,5.639999872E-4,-1.375219971E-1,2.291489989E-1
9.519720362E0,5.639999872E-4,-1.375219971E-1,2.291489989E-1
9.533725733E0,-1.537800021E-2,-1.225280017E-1,1.734839976E-1
9.547731829E0,-8.441000246E-3,-1.516849995E-1,1.751109958E-1
9.561738781E0,-3.648000071E-3,-1.426510066E-1,1.657299995E-1
9.575744882E0,-3.648000071E-3,-1.426510066E-1,1.657299995E-1
9.589750252E0,8.739000186E-3,-1.532299966E-1,1.982730031E-1
9.603756314E0,1.395000028E-3,-1.655790061E-1,1.766159981E-1
9.617763237E0,1.395000028E-3,-1.655790061E-1,1.766159981E-1
9.631769328E0,2.051000018E-3,-1.810989976E-1,1.901880056E-1
9.645774641E0,-2.748199925E-2,-1.913840026E-1,1.879020035E-1
9.659780795E0,-2.748199925E-2,-1.913840026E-1,1.879020035E-1
9.673787636E0,1.138999965E-2,-1.850589961E-1,2.064619958E-1
9.687793795E0,1.018700004E-2,-1.627770066E-1,1.892479956E-1
9.701799068E0,7.313999813E-3,-1.738850027E-1,1.721079946E-1
9.715805237E0,7.313999813E-3,-1.738850027E-1,1.721079946E-1
9.729812083E0,1.605200022E-2,-1.343590021E-1,1.631519943E-1
9.743818165E0,-9.209999815E-3,-1.434179991E-1,1.722429991E-1
9.757823553E0,-9.209999815E-3,-1.434179991E-1,1.722429991E-1
9.771829640E0,-1.385699958E-2,-1.712560058E-1,2.033820003E-1
9.785836429E0,-5.260000005E-3,-1.608500034E-1,2.114239931E-1
9.799842606E0,-5.260000005E-3,-1.608500034E-1,2.114239931E-1
9.813847967E0,5.278000142E-3,-1.495479941E-1,2.063499987E-1
9.827854010E0,-1.213099994E-2,-1.563079953E-1,2.633729875E-1
9.841860837E0,-2.718999982E-3,-1.442880034E-1,1.913670003E-1
9.855866967E0,-2.718999982E-3,-1.442880034E-1,1.913670003E-1
9.869872251E0,-6.281000096E-3,-1.442919970E-1,2.063589990E-1
9.883878395E0,1.011000015E-3,-1.425369978E-1,2.153220028E-1
9.897885228E0,1.011000015E-3,-1.425369978E-1,2.153220028E-1
9.911891294E0,-7.178000174E-3,-1.525530070E-1,1.753170043E-1
9.925896674E0,-1.475299988E-2,-1.599709988E-1,1.962880045E-1
9.939902779E0,-1.475299988E-2,-1.599709988E-1,1.962880045E-1
9.953909612E0,-2.903999994E-3,-1.484439969E-1,2.112320065E-1
9.967915737E0,-7.207000162E-3,-1.500339955E-1,1.892880052E-1
9.981921058E0,1.706999959E-3,-1.632329971E-1,1.994059980E-1
9.995927183E0,1.706999959E-3,-1.632329971E-1,1.994059980E-1
1.000993405E1,1.210699975E-2,-1.600179970E-1,2.977820039E-1
1.002394018E1,-1.523400005E-2,-1.406109929E-1,1.843899935E-1
1.003794552E1,-1.523400005E-2,-1.406109929E-1,1.843899935E-1
1.005195167E1,-3.305000020E-3,-1.439500004E-1,1.120740026E-1
1.006595856E1,-2.024699934E-2,-1.065220013E-1,1.579229981E-1
1.007996464E1,9.348999709E-3,-1.513819993E-1,1.196470037E-1
1.009397004E1,9.348999709E-3,-1.513819993E-1,1.196470037E-1
1.010797608E1,-1.343999989E-2,-2.043250054E-1,3.870440125E-1
1.012198293E1,-8.875000291E-3,-1.939650029E-1,2.662430108E-1
1.013598908E1,-8.875000291E-3,-1.939650029E-1,2.662430108E-1
1.014999437E1,-1.354900002E-2,-1.637849957E-1,1.126750037E-1
1.016400051E1,1.936000027E-2,-1.596489996E-1,1.215379983E-1
1.017800736E1,1.936000027E-2,-1.596489996E-1,1.215379983E-1
1.019201352E1,1.586499996E-2,-1.405320019E-1,2.395070046E-1
1.020601884E1,2.050399967E-2,-1.602129936E-1,2.604010105E-1
1.022002492E1,1.042400021E-2,-1.398639977E-1,2.122019976E-1
1.023403180E1,1.042400021E-2,-1.398639977E-1,2.122019976E-1
1.024803790E1,-2.440999961E-3,-1.268520057E-1,2.100799978E-1
1.026204327E1,-1.313600037E-2,-1.553180069E-1,2.101320028E-1
1.027604933E1,-1.313600037E-2,-1.553180069E-1,2.101320028E-1
1.029005619E1,8.379000239E-3,-1.731539965E-1,2.052569985E-1
1.030406239E1,-2.718600072E-2,-1.992769986E-1,1.982489973E-1
1.031806773E1,-2.718600072E-2,-1.992769986E-1,1.982489973E-1
1.033207388E1,4.612000193E-3,-1.514630020E-1,2.552370131E-1
1.034608073E1,-3.988999873E-2,-1.572860032E-1,1.881030053E-1
1.036008674E1,3.217000049E-3,-1.493099928E-1,1.718419939E-1
1.037409213E1,3.217000049E-3,-1.493099928E-1,1.718419939E-1
1.038809819E1,-4.982000217E-3,-1.925760061E-1,1.995750070E-1
1.040210508E1,2.637300082E-2,-1.749120057E-1,2.424629927E-1
1.041611116E1,2.637300082E-2,-1.749120057E-1,2.424629927E-1
1.043011655E1,-2.047000080E-2,-1.650509983E-1,2.404849976E-1
1.044412259E1,-1.186200045E-2,-1.482090056E-1,2.145980000E-1
1.045812944E1,-1.186200045E-2,-1.482090056E-1,2.145980000E-1
1.047213563E1,6.066999864E-3,-1.393159926E-1,2.287099957E-1
1.048614095E1,-2.741499990E-2,-1.540669948E-1,1.837439984E-1
1.050014712E1,-3.023999976E-3,-1.492169946E-1,2.197570056E-1
1.051415394E1,-3.023999976E-3,-1.492169946E-1,2.197570056E-1
1.052816005E1,1.321200002E-2,-1.436630040E-1,1.685840040E-1
1.054216541E1,2.160700038E-2,-1.416410059E-1,1.994680017E-1
1.055617150E1,2.160700038E-2,-1.416410059E-1,1.994680017E-1
1.057017849E1,1.736599952E-2,-1.398659945E-1,2.304400057E-1
1.058418460E1,3.028200008E-2,-1.883970052E-1,2.403919995E-1
1.059818999E1,3.028200008E-2,-1.883970052E-1,2.403919995E-1
1.061219608E1,6.949999835E-3,-2.037400007E-1,1.922499985E-1
1.062620291E1,3.398000030E-3,-1.746280044E-1,1.710570008E-1
1.064020905E1,-1.515099965E-2,-1.711080074E-1,1.748979986E-1
1.065421437E1,-1.515099965E-2,-1.711080074E-1,1.748979986E-1
1.066822053E1,1.191600040E-2,-1.509490013E-1,1.677930057E-1
1.068222737E1,1.427599974E-2,-1.764039993E-1,1.828459948E-1
1.069623341E1,1.427599974E-2,-1.764039993E-1,1.828459948E-1
1.071023878E1,1.876600087E-2,-1.694200039E-1,1.870599985E-1
1.072424484E1,8.565999568E-3,-1.531669945E-1,2.403340042E-1
1.073825176E1,8.565999568E-3,-1.531669945E-1,2.403340042E-1
1.075225780E1,-1.376300026E-2,-1.459230036E-1,2.115810066E-1
1.076626319E1,-6.215999834E-3,-1.475069970E-1,2.217459977E-1
1.078026929E1,-1.199700031E-2,-1.473210007E-1,2.337830067E-1
1.079427611E1,-1.199700031E-2,-1.473210007E-1,2.337830067E-1
1.080828226E1,-1.088699978E-2,-1.676480025E-1,2.146479934E-1
1.082228755E1,1.260699984E-2,-1.678739935E-1,1.716420054E-1
1.083629372E1,1.260699984E-2,-1.678739935E-1,1.716420054E-1
1.085030058E1,3.691999940E-3,-1.427000016E-1,1.688140035E-1
1.086430670E1,-2.791900001E-2,-1.515129954E-1,2.121769935E-1
1.087831209E1,-2.791900001E-2,-1.515129954E-1,2.121769935E-1
1.089231814E1,-1.819100045E-2,-1.702959985E-1,1.452250034E-1
1.090632507E1,1.333200000E-2,-1.776569933E-1,1.002330035E-1
1.092033114E1,-1.891900040E-2,-1.181939989E-1,2.205629945E-1
1.093433654E1,-1.891900040E-2,-1.181939989E-1,2.205629945E-1
1.094834260E1,2.143399976E-2,-1.847379953E-1,1.935350001E-1
1.096234944E1,6.869999925E-4,-1.896460056E-1,4.164499938E-1
1.097635562E1,6.869999925E-4,-1.896460056E-1,4.164499938E-1
1.099036088E1,-1.542999968E-2,-2.151899934E-1,3.558259904E-1
1.100436697E1,-2.325700037E-2,-1.951069981E-1,1.248340011E-1
1.101837380E1,-2.325700037E-2,-1.951069981E-1,1.248340011E-1
1.103237988E1,2.423000056E-3,-1.394499987E-1,1.105559990E-1
1.104638526E1,3.155700117E-2,-1.190290004E-1,2.034659982E-1
1.106039133E1,-8.219999727E-4,-1.044590026E-1,2.151779979E-1
1.107439822E1,-8.219999727E-4,-1.044590026E-1,2.151779979E-1
1.108840430E1,-6.940000225E-3,-1.147430018E-1,1.885810047E-1
1.110240970E1,3.335000016E-3,-1.269229949E-1,1.762350053E-1
1.111641578E1,3.335000016E-3,-1.269229949E-1,1.762350053E-1
1.113042265E1,-3.821099922E-2,-1.521400064E-1,1.900939941E-1
1.114442880E1,-1.453499962E-2,-1.679899991E-1,1.999969929E-1
1.115843412E1,-1.453499962E-2,-1.679899991E-1,1.999969929E-1
1.117244031E1,-1.897400059E-2,-2.012600005E-1,2.169750035E-1
1.118644720E1,-3.757999977E-3,-2.018249929E-1,2.237109989E-1
1.120045332E1,-1.110999961E-3,-1.729220003E-1,2.134509981E-1
1.121445872E1,-1.110999961E-3,-1.729220003E-1,2.134509981E-1
1.122846484E1,5.636000074E-3,-1.369760036E-1,1.268599927E-1
1.124247176E1,-1.688000048E-3,-1.560810059E-1,1.556279957E-1
1.125647785E1,-1.688000048E-3,-1.560810059E-1,1.556279957E-1
1.127048324E1,-1.103499997E-2,-1.709920019E-1,1.555629969E-1
1.128448937E1,-2.115299925E-2,-1.590230018E-1,1.479099989E-1
1.129849623E1,-2.115299925E-2,-1.590230018E-1,1.479099989E-1
1.131250242E1,2.062000101E-3,-1.421760023E-1,9.642600268E-2
1.132650777E1,-7.500000065E-4,-1.172780022E-1,1.380719990E-1
1.134051393E1,-2.198899910E-2,-1.245639995E-1,1.738059968E-1
1.135452079E1,-2.198899910E-2,-1.245639995E-1,1.738059968E-1
1.136852692E1,-1.480400003E-2,-1.383980066E-1,2.106409967E-1
1.138253220E1,3.384200111E-2,-1.595740020E-1,2.142979950E-1
1.139653835E1,3.384200111E-2,-1.595740020E-1,2.142979950E-1
1.141054514E1,2.483199909E-2,-1.599089950E-1,2.168200016E-1
1.142455121E1,-1.294399984E-2,-1.680860072E-1,1.644500047E-1
1.143855657E1,-1.294399984E-2,-1.680860072E-1,1.644500047E-1
1.145256266E1,3.434000071E-3,-1.796710044E-1,1.560530066E-1
1.146656959E1,-5.820000079E-4,-1.823900044E-1,1.617529988E-1
1.148057567E1,-3.421499953E-2,-1.616449952E-1,2.025150061E-1
1.149458104E1,-3.421499953E-2,-1.616449952E-1,2.025150061E-1
1.150858713E1,-1.166300010E-2,-1.602970064E-1,2.084559947E-1
1.152259398E1,-8.771999739E-3,-1.508450061E-1,2.093050033E-1
1.153660012E1,-8.771999739E-3,-1.508450061E-1,2.093050033E-1
1.155060540E1,5.487999879E-3,-1.575990021E-1,1.841399968E-1
1.156461154E1,9.469999932E-4,-1.473470032E-1,1.821140051E-1
1.157861842E1,9.469999932E-4,-1.473470032E-1,1.821140051E-1
1.159262454E1,1.230499987E-2,-1.441749930E-1,1.745480001E-1
1.160662993E1,1.935200021E-2,-1.346240044E-1,1.876910031E-1
1.162063615E1,2.416699938E-2,-1.372949928E-1,1.978130043E-1
1.163464299E1,2.416699938E-2,-1.372949928E-1,1.978130043E-1
1.164864905E1,1.063899975E-2,-1.537970006E-1,2.140959948E-1
1.166265445E1,4.375800118E-2,-1.560020000E-1,2.103250027E-1
1.167666051E1,4.375800118E-2,-1.560020000E-1,2.103250027E-1
1.169066738E1,2.483999915E-2,-1.515959948E-1,2.717379928E-1
1.170467351E1,5.218999926E-3,-1.633719951E-1,1.476449966E-1
1.171867878E1,5.218999926E-3,-1.633719951E-1,1.476449966E-1
1.173268489E1,1.756099984E-2,-1.819889992E-1,9.641800076E-2
1.174669175E1,-1.434599981E-2,-1.300459951E-1,2.402240038E-1
1.176069791E1,-3.599800169E-2,-1.792189926E-1,1.806299984E-1
1.177470322E1,-3.599800169E-2,-1.792189926E-1,1.806299984E-1
1.178870937E1,3.926299885E-2,-2.033530027E-1,4.088560045E-1
1.180271617E1,-3.747999901E-3,-2.061730027E-1,3.054719865E-1
1.181672219E1,-3.747999901E-3,-2.061730027E-1,3.054719865E-1
1.183072755E1,-1.412799954E-2,-1.612749994E-1,1.250610054E-1
1.184473363E1,6.333999801E-3,-1.350390017E-1,9.904500097E-2
1.185874054E1,2.421700023E-2,-1.234660000E-1,1.683309972E-1
1.187274660E1,2.421700023E-2,-1.234660000E-1,1.683309972E-1
1.188675201E1,9.146999568E-3,-1.413210034E-1,2.146909982E-1
1.190075806E1,3.757999977E-3,-1.383749992E-1,2.130479962E-1
1.191476493E1,3.757999977E-3,-1.383749992E-1,2.130479962E-1
1.192877109E1,-1.345499977E-2,-1.314679980E-1,1.796710044E-1
1.194277642E1,1.478200033E-2,-1.413079947E-1,1.474500000E-1
1.195678256E1,1.478200033E-2,-1.413079947E-1,1.474500000E-1
1.197078941E1,2.202000003E-3,-1.799149960E-1,1.623950005E-1
1.198479547E1,-1.217199955E-2,-2.092159986E-1,2.015299946E-1
1.199880086E1,-1.217199955E-2,-2.092159986E-1,2.015299946E-1
1.201280696E1,2.252100036E-2,-1.852270067E-1,2.504499853E-1
1.202681391E1,4.251999781E-3,-1.520520002E-1,2.180889994E-1
1.204081998E1,8.178999647E-3,-1.273020059E-1,1.824039966E-1
1.205482531E1,8.178999647E-3,-1.273020059E-1,1.824039966E-1
1.206883143E1,4.670200124E-2,-1.520580053E-1,1.849460006E-1
1.208283831E1,6.285000127E-3,-1.781560034E-1,1.903599948E-1
1.209684446E1,6.285000127E-3,-1.781560034E-1,1.903599948E-1
1.211084977E1,9.047999978E-3,-1.518490016E-1,2.119629979E-1
1.212485591E1,-1.073199976E-2,-1.637700051E-1,1.966529936E-1
1.213886273E1,-1.073199976E-2,-1.637700051E-1,1.966529936E-1
1.215286880E1,-3.340000054E-3,-1.275050044E-1,2.453619987E-1
1.216687417E1,2.164999954E-3,-1.500529945E-1,2.408300042E-1
1.218088023E1,1.905399933E-2,-1.616390049E-1,2.341900021E-1
1.219488710E1,1.905399933E-2,-1.616390049E-1,2.341900021E-1
1.220889315E1,2.328200080E-2,-1.722200066E-1,2.104080021E-1
1.222289846E1,1.565399952E-2,-1.577980071E-1,2.054820061E-1
1.223690463E1,1.565399952E-2,-1.577980071E-1,2.054820061E-1
1.225091151E1,2.345399931E-2,-1.572369933E-1,2.175679952E-1
1.226491766E1,8.640000015E-4,-1.685319990E-1,1.836560071E-1
1.227892299E1,8.640000015E-4,-1.685319990E-1,1.836560071E-1
1.229292917E1,1.369800046E-2,-1.802109927E-1,1.677089930E-1
1.230693603E1,2.175899968E-2,-1.764599979E-1,1.939460039E-1
1.232094213E1,-1.282799989E-2,-1.717000008E-1,1.531769931E-1
1.233494754E1,-1.282799989E-2,-1.717000008E-1,1.531769931E-1
1.234895366E1,-3.303000005E-3,-1.693000048E-1,1.684949994E-1
1.236296061E1,-1.189600024E-2,-1.606770009E-1,2.139800042E-1
1.237696670E1,-1.189600024E-2,-1.606770009E-1,2.139800042E-1
1.239097211E1,-1.926499978E-2,-1.614699960E-1,2.045470029E-1
1.240497819E1,-2.174299955E-2,-1.722760051E-1,2.251140028E-1
1.241898514E1,-2.174299955E-2,-1.722760051E-1,2.251140028E-1
1.243299130E1,-1.328799967E-2,-1.493330002E-1,2.395109981E-1
1.244699663E1,1.528999954E-2,-1.499260068E-1,1.988350004E-1
1.246100276E1,1.283199992E-2,-1.671610028E-1,1.970719993E-1
1.247500959E1,1.283199992E-2,-1.671610028E-1,1.970719993E-1
1.248901567E1,5.456000101E-3,-1.585309952E-1,1.872919947E-1
1.250302106E1,1.987699978E-2,-1.495549977E-1,2.095450014E-1
1.251702715E1,1.987699978E-2,-1.495549977E-1,2.095450014E-1
1.253103401E1,3.407099843E-2,-1.546339989E-1,2.117999941E-1
1.254504007E1,3.140300140E-2,-1.723430008E-1,2.149820030E-1
1.255904542E1,3.140300140E-2,-1.723430008E-1,2.149820030E-1
1.257305147E1,1.250899956E-2,-1.727650017E-1,2.169499993E-1
1.258705831E1,1.556599978E-2,-1.676499993E-1,2.000039965E-1
1.260106445E1,-1.965199970E-2,-1.445779949E-1,2.463009953E-1
1.261506976E1,-1.965199970E-2,-1.445779949E-1,2.463009953E-1
1.262907590E1,-3.642399982E-2,-1.667910069E-1,1.668840051E-1
1.264308272E1,-1.800700091E-2,-1.579400003E-1,1.305090040E-1
1.265708872E1,-1.800700091E-2,-1.579400003E-1,1.305090040E-1
1.267109406E1,-8.678000420E-3,-1.207619980E-1,2.163169980E-1
1.268510015E1,-7.124000229E-3,-1.761099994E-1,1.509210020E-1
1.269910705E1,-7.124000229E-3,-1.761099994E-1,1.509210020E-1
1.271311309E1,3.357400000E-2,-2.062620074E-1,3.713470101E-1
1.272711849E1,-2.129499987E-2,-2.062180042E-1,3.343729973E-1
1.274112456E1,-1.193800010E-2,-1.824229956E-1,1.603869945E-1
1.275513141E1,-1.193800010E-2,-1.824229956E-1,1.603869945E-1
1.276913757E1,1.901100017E-2,-1.642870009E-1,1.355679929E-1
1.278314286E1,4.895899817E-2,-1.316400021E-1,2.020660043E-1
1.279714899E1,4.895899817E-2,-1.316400021E-1,2.020660043E-1
1.281115587E1,3.133099899E-2,-1.366440058E-1,2.683629990E-1
1.282516193E1,2.092199959E-2,-1.365080029E-1,2.344290018E-1
1.283916733E1,2.092199959E-2,-1.365080029E-1,2.344290018E-1
1.285317342E1,2.931400016E-2,-1.199939996E-1,1.971630007E-1
1.286718038E1,7.309999783E-4,-1.402149945E-1,2.063360065E-1
1.288118649E1,-2.182199992E-2,-1.720770001E-1,1.766909957E-1
1.289519191E1,-2.182199992E-2,-1.720770001E-1,1.766909957E-1
1.290919796E1,-1.334400009E-2,-2.179030031E-1,1.729480028E-1
1.292320480E1,-7.135999855E-3,-1.751150042E-1,1.770489961E-1
1.293721096E1,-7.135999855E-3,-1.751150042E-1,1.770489961E-1
1.295121625E1,-2.917199954E-2,-1.471450031E-1,1.982679963E-1
1.296522238E1,-3.609199822E-2,-1.472180039E-1,1.513359994E-1
1.297922922E1,-3.609199822E-2,-1.472180039E-1,1.513359994E-1
1.299323530E1,1.723299921E-2,-1.724369973E-1,2.943130136E-1
1.300724071E1,1.783899963E-2,-1.975499988E-1,2.383269966E-1
1.302124675E1,8.750000270E-4,-1.656260043E-1,2.304610014E-1
1.303525367E1,8.750000270E-4,-1.656260043E-1,2.304610014E-1
1.304925978E1,-8.506000042E-3,-1.330190003E-1,1.765410006E-1
1.306326517E1,3.998700157E-2,-1.335020065E-1,2.188889980E-1
1.307727125E1,3.998700157E-2,-1.335020065E-1,2.188889980E-1
1.309127809E1,1.560099982E-2,-1.308140010E-1,2.040030062E-1
1.310528424E1,9.976999834E-3,-1.463740021E-1,1.841029972E-1
1.311928954E1,9.976999834E-3,-1.463740021E-1,1.841029972E-1
1.313329569E1,-5.508999806E-3,-1.703689992E-1,2.111299932E-1
1.314730258E1,1.911400072E-2,-1.760769933E-1,2.612009943E-1
1.316130864E1,2.677999903E-3,-1.743690073E-1,2.719660103E-1
1.317531406E1,2.677999903E-3,-1.743690073E-1,2.719660103E-1
1.318932015E1,1.221700013E-2,-1.730899960E-1,2.314520031E-1
1.320332710E1,-4.865999799E-3,-1.760630012E-1,1.813579947E-1
1.321733318E1,-4.865999799E-3,-1.760630012E-1,1.813579947E-1
1.323133858E1,-3.050399944E-2,-1.708679944E-1,1.707859933E-1
1.324534469E1,-2.160900086E-2,-1.547179967E-1,1.763080060E-1
1.325935154E1,-2.160900086E-2,-1.547179967E-1,1.763080060E-1
1.327335769E1,-1.126699988E-2,-1.668400019E-1,1.744849980E-1
1.328736301E1,-1.757999999E-3,-1.395570040E-1,1.561809927E-1
1.330136919E1,-9.235999547E-3,-1.255329996E-1,1.620679945E-1
1.331537603E1,-9.235999547E-3,-1.255329996E-1,1.620679945E-1
1.332938212E1,-1.669799909E-2,-1.411630064E-1,1.641130000E-1
1.334338753E1,6.515000015E-3,-1.419070065E-1,1.530839950E-1
1.335739362E1,6.515000015E-3,-1.419070065E-1,1.530839950E-1
1.337140056E1,2.210099995E-2,-1.550990045E-1,1.674229950E-1
1.338540664E1,-6.938000210E-3,-1.680350006E-1,1.878129989E-1
1.339941202E1,-6.938000210E-3,-1.680350006E-1,1.878129989E-1
1.341341808E1,9.998000227E-3,-1.586190015E-1,2.180469930E-1
1.342742493E1,5.361999851E-3,-1.608130038E-1,2.686069906E-1
1.344143111E1,-2.173800021E-2,-1.695580035E-1,1.066690013E-1
1.345543639E1,-2.173800021E-2,-1.695580035E-1,1.066690013E-1
1.346944251E1,3.731700033E-2,-1.584649980E-1,1.039030030E-1
1.348344937E1,1.256600022E-2,-1.203659996E-1,2.151490003E-1
1.349745552E1,1.256600022E-2,-1.203659996E-1,2.151490003E-1
1.351146083E1,-2.889100090E-2,-1.633089930E-1,8.335000277E-2
1.352546692E1,-6.035999861E-3,-1.878010035E-1,2.955650091E-1
1.353947387E1,-6.035999861E-3,-1.878010035E-1,2.955650091E-1
1.355347993E1,-3.451399878E-2,-1.886489987E-1,3.220269978E-1
1.356748527E1,-5.130000063E-4,-1.765740067E-1,1.828089952E-1
1.358149134E1,-3.523000050E-3,-1.538659930E-1,6.694699824E-2
1.359549818E1,-3.523000050E-3,-1.538659930E-1,6.694699824E-2
1.360950431E1,1.949599944E-2,-1.279020011E-1,8.541200310E-2
1.362350960E1,2.727200091E-2,-1.228649989E-1,9.409099817E-2
1.363751575E1,2.727200091E-2,-1.228649989E-1,9.409099817E-2
1.365152252E1,2.302799933E-2,-1.181550026E-1,8.714400232E-2
1.366552860E1,1.716000028E-3,-1.363479942E-1,1.064129993E-1
1.367953399E1,1.716000028E-3,-1.363479942E-1,1.064129993E-1
1.369354004E1,1.035699993E-2,-1.284800023E-1,1.619839966E-1
1.370754692E1,-3.996999934E-3,-1.551669985E-1,1.846020073E-1
1.372155296E1,-3.072500043E-2,-1.986970007E-1,2.233349979E-1
1.373555833E1,-3.072500043E-2,-1.986970007E-1,2.233349979E-1
1.374956437E1,-2.474799938E-2,-2.048200071E-1,2.599099874E-1
1.376357119E1,-2.090499923E-2,-1.999990046E-1,2.103279978E-1
1.377757733E1,-2.090499923E-2,-1.999990046E-1,2.103279978E-1
1.379158260E1,2.313500084E-2,-1.339460015E-1,1.405870020E-1
1.380558877E1,1.467599999E-2,-1.441060007E-1,2.110600024E-1
1.381959565E1,1.467599999E-2,-1.441060007E-1,2.110600024E-1
1.383360172E1,1.865500025E-2,-1.395770013E-1,2.207760066E-1
1.384760710E1,-7.594000082E-3,-1.736630052E-1,2.505219877E-1
1.386161319E1,9.990000399E-4,-1.604789943E-1,2.111690044E-1
1.387562003E1,9.990000399E-4,-1.604789943E-1,2.111690044E-1
1.388962620E1,1.021100022E-2,-1.374479979E-1,1.997999996E-1
1.390363154E1,-1.920400001E-2,-1.369999945E-1,1.715749949E-1
1.391763770E1,-1.920400001E-2,-1.369999945E-1,1.715749949E-1
1.393164457E1,1.087000011E-3,-1.515229940E-1,1.843679994E-1
1.394565072E1,-3.772000084E-3,-1.764219999E-1,2.042309940E-1
1.395965601E1,-3.772000084E-3,-1.764219999E-1,2.042309940E-1
1.397366212E1,1.495500002E-2,-1.778150052E-1,2.121510059E-1
1.398766910E1,-7.286000066E-3,-1.625040025E-1,2.109380066E-1
1.400167520E1,-4.534999840E-3,-1.525869966E-1,1.687960029E-1
1.401568061E1,-4.534999840E-3,-1.525869966E-1,1.687960029E-1
1.402968666E1,-1.475100033E-2,-1.512610018E-1,1.407070011E-1
1.404369347E1,-4.976000171E-3,-1.672389954E-1,1.469240040E-1
1.405769962E1,-4.976000171E-3,-1.672389954E-1,1.469240040E-1
1.407170483E1,1.124500018E-2,-1.697629988E-1,1.909729987E-1
1.408571097E1,-9.785999544E-3,-1.576510072E-1,2.229879946E-1
1.409971780E1,-9.785999544E-3,-1.576510072E-1,2.229879946E-1
1.411372382E1,5.665999837E-3,-1.667139977E-1,1.930979937E-1
1.412772925E1,-7.083000150E-3,-1.513179988E-1,1.410519928E-1
1.414173532E1,-4.468999803E-3,-1.657370031E-1,1.401540041E-1
1.415574224E1,-4.468999803E-3,-1.657370031E-1,1.401540041E-1
1.416974833E1,1.410700008E-2,-1.619240046E-1,1.794109941E-1
1.418375366E1,3.250399977E-2,-1.873539984E-1,2.892670035E-1
1.419775980E1,3.250399977E-2,-1.873539984E-1,2.892670035E-1
1.421176665E1,2.493700013E-2,-2.162590027E-1,3.721979856E-1
1.422577280E1,-3.618000075E-3,-2.232529968E-1,1.414030045E-1
1.423977813E1,-3.618000075E-3,-2.232529968E-1,1.414030045E-1
1.425378429E1,2.619699948E-2,-1.452649981E-1,1.495490074E-1
1.426779118E1,1.259000041E-3,-7.466299832E-2,2.439070046E-1
1.428179726E1,-5.931400135E-2,-1.314059943E-1,1.518590003E-1
1.429580272E1,-5.931400135E-2,-1.314059943E-1,1.518590003E-1
1.430980879E1,-2.038099989E-2,-2.057749927E-1,2.506349981E-1
1.432381564E1,-4.049500078E-2,-2.738130093E-1,3.206810057E-1
1.433782182E1,-4.049500078E-2,-2.738130093E-1,3.206810057E-1
1.435182710E1,-4.369999841E-2,-2.187429965E-1,1.456310004E-1
1.436583325E1,-3.288999898E-3,-1.888400018E-1,7.180800289E-2
1.437984009E1,-3.288999898E-3,-1.888400018E-1,7.180800289E-2
1.439384615E1,6.680000108E-3,-1.448200047E-1,1.993270069E-1
1.440785152E1,-1.925400086E-2,-1.497029960E-1,2.709099948E-1
1.442185762E1,-6.162500009E-2,-1.304319948E-1,2.504140139E-1
1.443586454E1,-6.162500009E-2,-1.304319948E-1,2.504140139E-1
1.444987059E1,-4.271399975E-2,-1.500480026E-1,2.987000048E-1
1.446387589E1,-5.216399953E-2,-1.984010041E-1,2.798370123E-1
1.447788201E1,-5.216399953E-2,-1.984010041E-1,2.798370123E-1
1.449188886E1,-4.668499902E-2,-1.696600020E-1,2.011229992E-1
1.450589498E1,-2.487000078E-2,-1.548839957E-1,1.464409977E-1
1.451990038E1,-2.487000078E-2,-1.548839957E-1,1.464409977E-1
1.453390643E1,-1.684599929E-2,-1.541450024E-1,1.142340004E-1
1.454791334E1,4.310400039E-2,-1.289349943E-1,1.053510010E-1
1.456191946E1,5.962299928E-2,-9.717400372E-2,7.422999945E-3
1.457592486E1,5.962299928E-2,-9.717400372E-2,7.422999945E-3
1.458993092E1,3.706400096E-2,-7.909599692E-2,1.198109984E-1
1.460393777E1,3.684899956E-2,-1.363369972E-1,1.351650059E-1
1.461794392E1,3.684899956E-2,-1.363369972E-1,1.351650059E-1
1.463194925E1,4.789999872E-2,-1.609179974E-1,1.617369950E-1
1.464595543E1,2.820499986E-2,-1.714439988E-1,1.955790073E-1
1.465996231E1,5.401699990E-2,-1.490850002E-1,2.372850031E-1
1.467396836E1,5.401699990E-2,-1.490850002E-1,2.372850031E-1
1.468797374E1,-4.699000157E-3,-1.051269993E-1,1.634169966E-1
1.470197981E1,-1.858700067E-2,-1.412249953E-1,2.014050037E-1
1.471598666E1,-1.858700067E-2,-1.412249953E-1,2.014050037E-1
1.472999282E1,1.135700010E-2,-2.437810004E-1,1.894530058E-1
1.474399813E1,-6.755200028E-2,-3.688009977E-1,2.202939987E-1
1.475800433E1,-6.755200028E-2,-3.688009977E-1,2.202939987E-1
1.477201115E1,-1.235729977E-1,-3.077059984E-1,2.055069953E-1
1.478601724E1,-9.806100279E-2,-1.752959937E-1,1.820130050E-1
1.480002263E1,-1.514520049E-1,-1.970499940E-2,1.212000027E-1
1.481402869E1,-1.514520049E-1,-1.970499940E-2,1.212000027E-1
1.482803561E1,-5.661299825E-2,4.465499893E-2,3.109939992E-1
1.484204163E1,-4.338400066E-2,3.277299926E-2,3.347469866E-1
1.485604692E1,-4.338400066E-2,3.277299926E-2,3.347469866E-1
1.487005301E1,4.655599967E-2,-1.207059994E-1,4.390470088E-1
1.488405988E1,1.198889986E-1,-4.223369956E-1,2.890079916E-1
1.489806598E1,1.198889986E-1,-4.223369956E-1,2.890079916E-1
1.491207134E1,1.982669979E-1,-4.802320004E-1,1.125660017E-1
1.492607741E1,1.507370025E-1,-3.003669977E-1,2.509199977E-1
1.494008434E1,1.404989958E-1,-1.530890018E-1,3.104400039E-1
1.495409042E1,1.404989958E-1,-1.530890018E-1,3.104400039E-1
1.496809578E1,1.477089971E-1,-1.228860021E-1,2.508800030E-1
1.498210183E1,2.780030072E-1,-1.171849966E-1,1.686470062E-1
1.499610867E1,2.780030072E-1,-1.171849966E-1,1.686470062E-1
1.501011472E1,2.259549946E-1,-1.412339956E-1,5.304300040E-2
1.502412012E1,2.135049999E-1,-1.778320074E-1,1.489659995E-1
1.503812618E1,2.135049999E-1,-1.778320074E-1,1.489659995E-1
1.505213312E1,1.925600022E-1,-1.538749933E-1,2.399590015E-1
1.506613921E1,1.545699984E-1,-1.982840002E-1,3.600299954E-1
1.508014462E1,3.444899991E-2,-1.682180017E-1,2.106910050E-1
1.509415069E1,3.444899991E-2,-1.682180017E-1,2.106910050E-1
1.510815753E1,-1.695400029E-1,-1.041579992E-1,1.050470024E-1
1.512216375E1,-1.174290031E-1,-1.365139931E-1,2.287040055E-1
1.513616908E1,-1.174290031E-1,-1.365139931E-1,2.287040055E-1
1.515017514E1,-1.865320057E-1,-2.078910023E-1,1.249359995E-1
1.516418203E1,-2.297929972E-1,-2.745789886E-1,4.040139914E-1
1.517818810E1,-2.297929972E-1,-2.745789886E-1,4.040139914E-1
1.519219350E1,-2.416819930E-1,-2.592329979E-1,3.483540118E-1
1.520619956E1,-2.313449979E-1,-2.812519968E-1,1.540279984E-1
1.522020643E1,-1.921329945E-1,-2.289620042E-1,1.073039994E-1
1.523421259E1,-1.921329945E-1,-2.289620042E-1,1.073039994E-1
1.524821791E1,-1.657160074E-1,-6.019200012E-2,2.061749995E-1
1.526222409E1,-1.095149964E-1,-2.109000087E-2,1.588699967E-1
1.527623091E1,-1.095149964E-1,-2.109000087E-2,1.588699967E-1
1.529023700E1,-4.109599814E-2,-4.315999802E-3,1.716569960E-1
1.530424240E1,1.482199971E-2,-3.761500120E-2,1.387829930E-1
1.531824849E1,1.482199971E-2,-3.761500120E-2,1.387829930E-1
1.533225528E1,3.365200013E-2,-4.620400071E-2,1.617770046E-1
1.534626143E1,5.959400162E-2,-1.210350022E-1,1.888779998E-1
1.536026672E1,1.088249981E-1,-3.407410085E-1,2.205179930E-1
1.537427288E1,1.088249981E-1,-3.407410085E-1,2.205179930E-1
1.538827972E1,9.364300221E-2,-5.157679915E-1,2.497539967E-1
1.540228581E1,3.358700126E-2,-4.972659945E-1,2.689200044E-1
1.541629120E1,3.358700126E-2,-4.972659945E-1,2.689200044E-1
1.543029725E1,7.429199666E-2,-3.692460060E-1,2.670280039E-1
1.544430408E1,2.603830099E-1,-1.877579987E-1,2.547479868E-1
1.545831023E1,2.603830099E-1,-1.877579987E-1,2.547479868E-1
1.547231553E1,2.948920131E-1,-9.515299648E-2,1.493699998E-1
1.548632168E1,1.837610006E-1,-2.806100063E-2,9.117200226E-2
1.550032853E1,5.756299943E-2,3.745099902E-2,5.326199904E-2
1.551433458E1,5.756299943E-2,3.745099902E-2,5.326199904E-2
1.552833993E1,1.454200037E-2,-1.743499935E-2,8.990400285E-2
1.554234600E1,-1.607000013E-3,-6.754399836E-2,8.785600215E-2
1.555635284E1,-1.607000013E-3,-6.754399836E-2,8.785600215E-2
1.557035904E1,-1.348070055E-1,-1.093500033E-1,2.280869931E-1
1.558436435E1,-4.358199984E-2,-1.942470074E-1,4.092029929E-1
1.559837051E1,-4.358199984E-2,-1.942470074E-1,4.092029929E-1
1.561237736E1,-1.634299941E-2,-3.501499891E-1,3.034709990E-1
1.562638344E1,-1.066159979E-1,-3.235599995E-1,2.031739950E-1
1.564038886E1,-2.343100011E-1,-2.042489946E-1,9.513100237E-2
1.565439495E1,-2.343100011E-1,-2.042489946E-1,9.513100237E-2
1.566840178E1,2.302000066E-3,1.711999997E-2,1.866430044E-1
1.568240793E1,1.288349926E-1,-3.181999922E-2,2.112469971E-1
1.569641324E1,1.288349926E-1,-3.181999922E-2,2.112469971E-1
1.571041944E1,-6.181399897E-2,-1.144260019E-1,1.565379947E-1
1.572442627E1,-1.228599995E-1,-2.831899934E-2,1.807360053E-1
1.573843237E1,-1.228599995E-1,-2.831899934E-2,1.807360053E-1
1.575243777E1,-9.920399636E-2,-8.073099703E-2,1.452649981E-1
1.576644382E1,2.866300009E-2,-1.829240024E-1,1.530500054E-1
1.578045063E1,1.072510034E-1,-2.788650095E-1,1.640799940E-1
1.579445680E1,1.072510034E-1,-2.788650095E-1,1.640799940E-1
1.580846207E1,2.952500060E-2,-3.882060051E-1,1.492229998E-1
1.582246816E1,-8.308299631E-2,-3.646669984E-1,2.018119991E-1
1.583647510E1,-8.308299631E-2,-3.646669984E-1,2.018119991E-1
1.585048118E1,-9.473100305E-2,-2.977699935E-1,1.483229995E-1
1.586448655E1,9.890000336E-3,-1.637520045E-1,1.295270026E-1
1.587849260E1,9.890000336E-3,-1.637520045E-1,1.295270026E-1
1.589249948E1,1.637880057E-1,-1.373659968E-1,2.209759951E-1
1.590650555E1,2.362390012E-1,-2.589119971E-1,4.342299998E-1
1.592051097E1,1.616069973E-1,-3.983179927E-1,3.595939875E-1
1.593451701E1,1.616069973E-1,-3.983179927E-1,3.595939875E-1
1.594852394E1,-9.258899838E-2,-4.337059855E-1,7.748500258E-2
1.596253001E1,-2.455260009E-1,-2.079460025E-1,2.802900039E-2
1.597653533E1,-2.455260009E-1,-2.079460025E-1,2.802900039E-2
1.599054145E1,-2.229910046E-1,-3.190600127E-2,4.629199952E-2
1.600454829E1,-1.206459999E-1,-2.439399995E-2,1.286160052E-1
1.601855438E1,-1.206459999E-1,-2.439399995E-2,1.286160052E-1
1.603255976E1,-4.010599852E-2,-7.540400326E-2,2.323700041E-1
1.604656583E1,4.178000148E-3,-6.972300261E-2,2.760989964E-1
1.606057271E1,1.100399997E-2,-8.955399692E-2,3.043830097E-1
1.607457891E1,1.100399997E-2,-8.955399692E-2,3.043830097E-1
1.608858424E1,-2.879999951E-2,-7.168199867E-2,1.772679985E-1
1.610259037E1,-4.536499828E-2,-5.736500025E-2,7.896800339E-2
1.611659720E1,-4.536499828E-2,-5.736500025E-2,7.896800339E-2
1.613060322E1,-4.389999958E-4,-8.455800265E-2,1.682399958E-1
1.614460864E1,1.440799981E-2,-1.891130060E-1,1.420989931E-1
1.615861472E1,1.440799981E-2,-1.891130060E-1,1.420989931E-1
1.617262156E1,5.797800049E-2,-2.300840020E-1,2.590000033E-1
1.618662776E1,6.621100008E-2,-3.096809983E-1,2.759149969E-1
1.620063312E1,5.749699846E-2,-3.494170010E-1,2.850430012E-1
1.621463930E1,5.749699846E-2,-3.494170010E-1,2.850430012E-1
1.622864616E1,4.182200134E-2,-3.385660052E-1,1.685280055E-1
1.624265223E1,5.834899843E-2,-2.638440132E-1,1.161219999E-1
1.625665764E1,5.834899843E-2,-2.638440132E-1,1.161219999E-1
1.627066366E1,-8.670999669E-3,-1.928910017E-1,1.099940017E-1
1.628467049E1,-3.864699975E-2,-1.768279970E-1,1.451119930E-1
1.629867654E1,-3.864699975E-2,-1.768279970E-1,1.451119930E-1
1.631268192E1,-6.380800158E-2,-1.645009965E-1,1.986670047E-1
1.632668798E1,-4.573100060E-2,-1.571940035E-1,2.188539952E-1
1.634069492E1,-4.643899947E-2,-1.416739970E-1,2.249470055E-1
1.635470098E1,-4.643899947E-2,-1.416739970E-1,2.249470055E-1
1.636870630E1,-1.123000053E-3,-1.279570013E-1,2.360810041E-1
1.638271250E1,2.858999930E-2,-1.500740051E-1,2.219779938E-1
1.639671931E1,2.858999930E-2,-1.500740051E-1,2.219779938E-1
1.641072539E1,4.279299825E-2,-1.612199992E-1,1.987480074E-1
1.642473074E1,3.851300105E-2,-1.713729948E-1,1.872520000E-1
1.643873682E1,3.851300105E-2,-1.713729948E-1,1.872520000E-1
1.645274367E1,4.467999935E-2,-2.222020030E-1,2.027959973E-1
1.646674979E1,6.149699911E-2,-2.354069948E-1,1.845699996E-1
1.648075506E1,6.148499995E-2,-2.211039960E-1,1.805479974E-1
1.649476115E1,6.148499995E-2,-2.211039960E-1,1.805479974E-1
1.650876809E1,4.655500129E-2,-2.085929960E-1,2.849510014E-1
1.652277421E1,-9.754000232E-3,-2.093739957E-1,1.123830006E-1
1.653677953E1,-9.754000232E-3,-2.093739957E-1,1.123830006E-1
1.655078570E1,-5.167099833E-2,-2.047210038E-1,1.587010026E-1
1.656479258E1,-1.489199977E-2,-1.552609950E-1,1.921049953E-1
1.657879863E1,-1.489199977E-2,-1.552609950E-1,1.921049953E-1
1.659280400E1,-6.855800003E-2,-2.001920044E-1,1.112660021E-1
1.660681005E1,-1.852899976E-2,-2.153269947E-1,2.865270078E-1
1.662081686E1,-2.296699956E-2,-2.571130097E-1,3.742969930E-1
1.663482302E1,-2.296699956E-2,-2.571130097E-1,3.742969930E-1
1.664882833E1,-2.743300050E-2,-2.092140019E-1,1.397480071E-1
1.666283449E1,7.333999965E-3,-1.451849937E-1,4.189600050E-2
1.667684134E1,7.333999965E-3,-1.451849937E-1,4.189600050E-2
1.669084744E1,6.509999931E-2,-1.027970016E-1,8.050999790E-2
1.670485284E1,6.129400060E-2,-1.544860005E-1,1.603869945E-1
1.671885890E1,6.129400060E-2,-1.544860005E-1,1.603869945E-1
1.673286572E1,-6.279000081E-3,-1.866109967E-1,2.234899998E-1
1.674687181E1,-1.537999953E-3,-1.973039955E-1,2.623650134E-1
1.676087719E1,1.281999983E-2,-2.037370056E-1,2.831380069E-1
1.677488326E1,1.281999983E-2,-2.037370056E-1,2.831380069E-1
1.678889009E1,9.987000376E-3,-2.080879956E-1,2.451979965E-1
1.680289626E1,1.708999975E-3,-2.249329984E-1,2.301930040E-1
1.681690157E1,1.708999975E-3,-2.249329984E-1,2.301930040E-1
1.683090774E1,-1.755400002E-2,-2.280440032E-1,1.517429948E-1
1.684491458E1,-2.599999971E-5,-2.042669952E-1,2.407290041E-1
1.685892066E1,-2.599999971E-5,-2.042669952E-1,2.407290041E-1
1.687292606E1,1.956300065E-2,-1.926530004E-1,1.214189976E-1
1.688693211E1,2.366800047E-2,-1.589410007E-1,2.061150074E-1
1.690093894E1,3.773799911E-2,-1.810919940E-1,1.873870045E-1
1.691494509E1,3.773799911E-2,-1.810919940E-1,1.873870045E-1
1.692895043E1,-1.816000044E-2,-2.032870054E-1,1.880439967E-1
1.694295647E1,-2.336400002E-2,-2.174230069E-1,1.820199937E-1
1.695696332E1,-2.336400002E-2,-2.174230069E-1,1.820199937E-1
1.697096946E1,-2.199699916E-2,-1.958860010E-1,2.021010071E-1
1.698497477E1,-7.290000212E-4,-1.631129980E-1,1.960860044E-1
1.699898092E1,-7.290000212E-4,-1.631129980E-1,1.960860044E-1
1.701298778E1,-7.379999734E-4,-1.531510055E-1,2.107830048E-1
1.702699389E1,9.352999739E-3,-1.722549945E-1,2.214950025E-1
1.704099926E1,5.130000040E-2,-2.308119982E-1,1.723040044E-1
1.705500537E1,5.130000040E-2,-2.308119982E-1,1.723040044E-1
1.706901222E1,4.230799899E-2,-1.898510009E-1,2.040369958E-1
1.708301830E1,1.104899962E-2,-1.760600060E-1,1.803040057E-1
1.709702368E1,1.104899962E-2,-1.760600060E-1,1.803040057E-1
1.711102974E1,-6.492999848E-3,-1.643369943E-1,1.684159935E-1
1.712503659E1,-2.466299944E-2,-1.717219949E-1,1.736640036E-1
1.713904274E1,-2.466299944E-2,-1.717219949E-1,1.736640036E-1
1.715304806E1,-2.618600056E-2,-1.861840039E-1,1.830530018E-1
1.716705425E1,8.236000314E-3,-2.039929926E-1,2.485399991E-1
1.718106110E1,2.613800019E-2,-2.086170018E-1,2.490520030E-1
1.719506719E1,2.613800019E-2,-2.086170018E-1,2.490520030E-1
1.720907260E1,1.457200013E-2,-1.835650057E-1,2.225210071E-1
1.722307867E1,1.337500010E-2,-1.877730042E-1,1.299500018E-1
1.723708549E1,1.337500010E-2,-1.877730042E-1,1.299500018E-1
1.725109154E1,-6.489999942E-4,-1.669960022E-1,1.475179940E-1
1.726509695E1,-3.524000058E-3,-1.810580045E-1,1.624210030E-1
1.727910300E1,-3.524000058E-3,-1.810580045E-1,1.624210030E-1
1.729310980E1,2.275599912E-2,-1.942770034E-1,2.136140019E-1
1.730711596E1,4.517300054E-2,-1.792169958E-1,2.315340042E-1
1.732112129E1,3.324799985E-2,-1.763900071E-1,2.755779922E-1
1.733512739E1,3.324799985E-2,-1.763900071E-1,2.755779922E-1
1.734913430E1,-4.278700054E-2,-1.699720025E-1,1.229249984E-1
1.736314042E1,-6.264899671E-2,-1.280989945E-1,1.063209996E-1
1.737714570E1,-6.264899671E-2,-1.280989945E-1,1.063209996E-1
1.739115186E1,-2.300300077E-2,-1.625249982E-1,2.029999942E-1
1.740515869E1,-1.778599992E-2,-1.609590054E-1,1.702689976E-1
1.741916476E1,-1.778599992E-2,-1.609590054E-1,1.702689976E-1
1.743317011E1,7.071299851E-2,-2.334070057E-1,3.990629911E-1
1.744717619E1,4.340599850E-2,-2.493229955E-1,3.341619968E-1
1.746118305E1,-1.048799977E-2,-2.405160069E-1,8.135599643E-2
1.747518918E1,-1.048799977E-2,-2.405160069E-1,8.135599643E-2
1.748919455E1,5.894999951E-3,-1.693899930E-1,8.424200118E-2
1.750320060E1,3.946699947E-2,-1.560219973E-1,2.014870048E-1
1.751720747E1,3.946699947E-2,-1.560219973E-1,2.014870048E-1
1.753121364E1,5.349799991E-2,-1.622750014E-1,2.876270115E-1
1.754521893E1,5.515899882E-2,-1.921270043E-1,2.824989855E-1
1.755922506E1,5.515899882E-2,-1.921270043E-1,2.824989855E-1
1.757323196E1,1.380699966E-2,-1.718290001E-1,2.032500058E-1
1.758723802E1,-1.506199967E-2,-1.549970061E-1,1.442410052E-1
1.760124330E1,-4.230900109E-2,-1.579570025E-1,1.515650004E-1
1.761524947E1,-4.230900109E-2,-1.579570025E-1,1.515650004E-1
1.762925635E1,-5.113999918E-2,-2.023019940E-1,1.948069930E-1
1.764326242E1,-5.161099881E-2,-1.964430064E-1,2.279250026E-1
1.765726780E1,-5.161099881E-2,-1.964430064E-1,2.279250026E-1
1.767127381E1,-3.282700107E-2,-1.835259944E-1,1.730960011E-1
1.768528067E1,1.657599956E-2,-1.781740040E-1,1.211740002E-1
1.769928687E1,1.657599956E-2,-1.781740040E-1,1.211740002E-1
1.771329216E1,5.581999943E-2,-1.917189956E-1,2.004140019E-1
1.772729824E1,2.606200054E-2,-2.066400051E-1,2.195679992E-1
1.774130510E1,-1.395000028E-3,-2.149239928E-1,1.981270015E-1
1.775531125E1,-1.395000028E-3,-2.149239928E-1,1.981270015E-1
1.776931651E1,-1.775100082E-2,-2.007230073E-1,1.709250063E-1
1.778332256E1,4.044099897E-2,-1.779579967E-1,1.758179963E-1
1.779732950E1,4.044099897E-2,-1.779579967E-1,1.758179963E-1
1.781133560E1,4.414699972E-2,-1.751839966E-1,2.105460018E-1
1.782534091E1,1.641100086E-2,-1.644179970E-1,2.401060015E-1
1.783934704E1,1.641100086E-2,-1.644179970E-1,2.401060015E-1
1.785335392E1,3.789999988E-3,-1.811099946E-1,2.594729960E-1
1.786735998E1,4.821899906E-2,-1.709630042E-1,2.306659967E-1
1.788136533E1,4.889100045E-2,-1.824730039E-1,2.477550060E-1
1.789537146E1,4.889100045E-2,-1.824730039E-1,2.477550060E-1
1.790937829E1,3.031600080E-2,-1.900220066E-1,2.186830044E-1
1.792338435E1,3.311499953E-2,-2.120579928E-1,2.042089999E-1
1.793738974E1,3.311499953E-2,-2.120579928E-1,2.042089999E-1
1.795139579E1,1.885299943E-2,-2.093790025E-1,2.128400058E-1
1.796540265E1,1.281300001E-2,-2.095219940E-1,2.224960029E-1
1.797940879E1,1.281300001E-2,-2.095219940E-1,2.224960029E-1
1.799341414E1,-4.180299863E-2,-1.962880045E-1,1.878889948E-1
1.800742026E1,-1.331099961E-2,-1.776230037E-1,2.025209963E-1
1.802142717E1,1.986799948E-2,-1.950310022E-1,1.803099960E-1
1.803543326E1,1.986799948E-2,-1.950310022E-1,1.803099960E-1
1.804943854E1,4.620299861E-2,-1.838559955E-1,1.971790045E-1
1.806344470E1,4.429399967E-2,-1.807360053E-1,2.260420024E-1
1.807745156E1,4.429399967E-2,-1.807360053E-1,2.260420024E-1
1.809145767E1,3.885300085E-2,-1.717769951E-1,2.278670073E-1
1.810546298E1,-1.138000051E-3,-1.882629991E-1,2.204730064E-1
1.811946916E1,-1.138000051E-3,-1.882629991E-1,2.204730064E-1
1.813347600E1,-1.357099973E-2,-1.629440039E-1,1.770469993E-1
1.814748210E1,-1.035500038E-2,-1.974810064E-1,1.498409957E-1
1.816148748E1,2.143700048E-2,-1.517959982E-1,1.371700019E-1
1.817549358E1,2.143700048E-2,-1.517959982E-1,1.371700019E-1
1.818950042E1,-4.255000036E-3,-1.290130019E-1,9.649500251E-2
1.820350652E1,3.370000049E-4,-1.641439945E-1,2.145600021E-1
1.821751190E1,3.370000049E-4,-1.641439945E-1,2.145600021E-1
1.823151797E1,-2.303499915E-2,-1.787039936E-1,2.064470053E-1
1.824552480E1,5.259000231E-3,-2.287400067E-1,3.751020133E-1
1.825953097E1,5.259000231E-3,-2.287400067E-1,3.751020133E-1
1.827353627E1,-1.645500027E-2,-2.514950037E-1,2.507629991E-1
1.828754234E1,-4.097399861E-2,-1.971510053E-1,6.233099848E-2
1.830154926E1,-1.065300032E-2,-1.496039927E-1,4.955099896E-2
1.831555533E1,-1.065300032E-2,-1.496039927E-1,4.955099896E-2
1.832956067E1,4.294800013E-2,-1.410810053E-1,1.260810047E-1
1.834356682E1,1.970399916E-2,-1.388529986E-1,1.854230016E-1
1.835757366E1,1.970399916E-2,-1.388529986E-1,1.854230016E-1
1.837157974E1,1.635700092E-2,-1.495880038E-1,2.088789940E-1
1.838558505E1,2.428800054E-2,-1.479649991E-1,2.323759943E-1
1.839959119E1,2.428800054E-2,-1.479649991E-1,2.323759943E-1
1.841359802E1,1.880000054E-4,-1.568520069E-1,2.338099927E-1
1.842760409E1,3.157000057E-3,-1.714410037E-1,2.024340034E-1
1.844160943E1,-2.350600064E-2,-1.990009993E-1,1.809239984E-1
1.845561550E1,-2.350600064E-2,-1.990009993E-1,1.809239984E-1
1.846962234E1,9.305000305E-3,-1.832990050E-1,2.084269971E-1
1.848362844E1,4.213000182E-3,-2.080319971E-1,1.169100031E-1
1.849763380E1,4.213000182E-3,-2.080319971E-1,1.169100031E-1
1.851163991E1,3.103699908E-2,-1.769360006E-1,1.526380032E-1
1.852564674E1,4.057800025E-2,-1.852229983E-1,2.344260067E-1
1.853965279E1,4.057800025E-2,-1.852229983E-1,2.344260067E-1
1.855365815E1,-2.077100053E-2,-1.892600060E-1,2.120759934E-1
1.856766422E1,-2.321200073E-2,-1.766459942E-1,2.171400040E-1
1.858167104E1,-1.551300008E-2,-2.014079988E-1,1.834370047E-1
1.859567724E1,-1.551300008E-2,-2.014079988E-1,1.834370047E-1
1.860968254E1,-3.162000095E-3,-1.508850008E-1,1.987690032E-1
1.862368862E1,-1.596100070E-2,-1.492290050E-1,1.479810029E-1
1.863769548E1,-1.596100070E-2,-1.492290050E-1,1.479810029E-1
1.865170171E1,-2.384700067E-2,-1.294640005E-1,2.133619934E-1
1.866570703E1,1.791599952E-2,-1.689479947E-1,2.065760046E-1
1.867971311E1,1.791599952E-2,-1.689479947E-1,2.065760046E-1
1.869372003E1,2.096500061E-2,-1.702760011E-1,2.373750061E-1
1.870772613E1,7.048999891E-3,-1.739179939E-1,2.011359930E-1
1.872173142E1,-3.236999968E-3,-1.639840007E-1,1.818400025E-1
1.873573758E1,-3.236999968E-3,-1.639840007E-1,1.818400025E-1
1.874974444E1,-1.869899966E-2,-1.650840044E-1,1.816940010E-1
1.876375053E1,-5.487000104E-3,-1.977169961E-1,1.694660038E-1
1.877775592E1,-5.487000104E-3,-1.977169961E-1,1.694660038E-1
1.879176201E1,1.266700029E-2,-2.051409930E-1,1.835560054E-1
1.880576885E1,1.294600032E-2,-1.835030019E-1,1.937890053E-1
1.881977493E1,1.294600032E-2,-1.835030019E-1,1.937890053E-1
1.883378032E1,5.497000180E-3,-1.907130033E-1,2.081789970E-1
1.884778640E1,2.098199911E-2,-1.687439978E-1,2.275959998E-1
1.886179320E1,1.505600009E-2,-1.415850073E-1,2.240619957E-1
1.887579923E1,1.505600009E-2,-1.415850073E-1,2.240619957E-1
1.888980461E1,2.107900009E-2,-1.508779973E-1,1.540119946E-1
1.890381068E1,1.247300021E-2,-1.143629998E-1,5.571699888E-2
1.891781752E1,1.247300021E-2,-1.143629998E-1,5.571699888E-2
1.893182360E1,-4.798999988E-3,-1.083910018E-1,2.018260062E-1
1.894582896E1,-8.828000166E-3,-1.671140045E-1,1.467490047E-1
1.895983505E1,-8.828000166E-3,-1.671140045E-1,1.467490047E-1
1.897384188E1,2.191999927E-2,-2.072450072E-1,3.021520078E-1
1.898784794E1,-9.399999981E-4,-2.159949988E-1,2.774649858E-1
1.900185333E1,-1.843300089E-2,-1.907619983E-1,1.260699928E-1
1.901585941E1,-1.843300089E-2,-1.907619983E-1,1.260699928E-1
1.902986626E1,-7.539999788E-4,-1.604530066E-1,4.926700145E-2
1.904387241E1,3.483299911E-2,-1.378809959E-1,1.438010037E-1
1.905787774E1,3.483299911E-2,-1.378809959E-1,1.438010037E-1
1.907188387E1,2.739899978E-2,-1.558039933E-1,1.942629963E-1
1.908589074E1,-1.767300069E-2,-1.508740038E-1,2.277040035E-1
1.909989689E1,-1.767300069E-2,-1.508740038E-1,2.277040035E-1
1.911390221E1,-9.428000078E-3,-1.569049954E-1,2.162940055E-1
1.912790831E1,-9.219999774E-4,-1.502829939E-1,1.978340000E-1
1.914191522E1,5.291000009E-3,-1.828429997E-1,1.863429993E-1
1.915592130E1,5.291000009E-3,-1.828429997E-1,1.863429993E-1
1.916992663E1,-2.493000031E-2,-2.231339961E-1,1.657489985E-1
1.918393281E1,8.727000095E-3,-1.741140038E-1,2.146520019E-1
1.919793966E1,8.727000095E-3,-1.741140038E-1,2.146520019E-1
1.921194574E1,2.266800031E-2,-1.831540018E-1,1.524109989E-1
1.922595106E1,3.128400072E-2,-1.531360000E-1,1.680359989E-1
1.923995720E1,4.175499827E-2,-1.639340073E-1,2.326720059E-1
1.925396406E1,4.175499827E-2,-1.639340073E-1,2.326720059E-1
1.926797010E1,9.995999746E-3,-1.807810068E-1,2.055670023E-1
1.928197542E1,-1.072200015E-2,-1.900990009E-1,1.947129965E-1
1.929598155E1,-1.072200015E-2,-1.900990009E-1,1.947129965E-1
1.930998842E1,4.881000146E-3,-1.865379959E-1,1.570039988E-1
1.932399449E1,1.173000038E-2,-1.713739932E-1,1.825439930E-1
1.933799979E1,1.173000038E-2,-1.713739932E-1,1.825439930E-1
1.935200595E1,1.530900039E-2,-1.340219975E-1,1.818110049E-1
1.936601282E1,9.549999959E-4,-1.421159953E-1,2.071689963E-1
1.938001887E1,7.509000134E-3,-1.670279950E-1,1.795849949E-1
1.939402419E1,7.509000134E-3,-1.670279950E-1,1.795849949E-1
1.940803032E1,4.143799841E-2,-1.885319948E-1,2.120780051E-1
1.942203719E1,2.242200077E-2,-1.866929978E-1,2.111639977E-1
1.943604324E1,2.242200077E-2,-1.866929978E-1,2.111639977E-1
1.945004863E1,-1.818999997E-3,-1.804369986E-1,2.141669989E-1
1.946405469E1,-4.786999896E-3,-1.588190049E-1,1.822389960E-1
1.947806151E1,-4.786999896E-3,-1.588190049E-1,1.822389960E-1
1.949206756E1,2.456000075E-2,-1.819680035E-1,2.041810006E-1
1.950607292E1,-2.045300044E-2,-1.787209958E-1,1.910350025E-1
1.952007901E1,-2.948899940E-2,-1.998959929E-1,1.799850017E-1
1.953408585E1,-2.948899940E-2,-1.998959929E-1,1.799850017E-1
1.954809192E1,1.782800071E-2,-1.857690066E-1,1.834529936E-1
1.956209730E1,3.786800057E-2,-1.948339939E-1,2.380740047E-1
1.957610336E1,3.786800057E-2,-1.948339939E-1,2.380740047E-1
1.959011022E1,1.707500033E-2,-1.734579951E-1,6.427899748E-2
1.960411628E1,-1.215000055E-3,-1.292189956E-1,1.738419980E-1
1.961812169E1,-1.215000055E-3,-1.292189956E-1,1.738419980E-1
1.963212773E1,2.066699974E-2,-1.702529937E-1,2.349530011E-1
1.964613459E1,-2.628199942E-2,-1.671130061E-1,1.655099988E-1
1.966014067E1,9.925999679E-3,-1.912479997E-1,3.168359995E-1
1.967414607E1,9.925999679E-3,-1.912479997E-1,3.168359995E-1
1.968815217E1,7.730000187E-3,-2.223380059E-1,2.855150104E-1
1.970215901E1,-6.357000209E-3,-2.245869935E-1,1.156610027E-1
1.971616510E1,-6.357000209E-3,-2.245869935E-1,1.156610027E-1
1.973017050E1,1.745299995E-2,-1.869619936E-1,4.928300157E-2
1.974417656E1,2.353700064E-2,-1.342059970E-1,1.776109934E-1
1.975818342E1,2.353700064E-2,-1.342059970E-1,1.776109934E-1
1.977218948E1,2.842199989E-2,-1.563010067E-1,2.266159952E-1
1.978619491E1,-8.612999693E-3,-1.468289942E-1,2.225400060E-1
1.980020096E1,-2.587799914E-2,-1.674019992E-1,2.184520066E-1
1.981420782E1,-2.587799914E-2,-1.674019992E-1,2.184520066E-1
1.982821390E1,-2.984999912E-3,-1.536960006E-1,1.885920018E-1
1.984221930E1,1.811699942E-2,-1.826300025E-1,1.897940040E-1
1.985622537E1,1.811699942E-2,-1.826300025E-1,1.897940040E-1
1.987023225E1,2.292500064E-2,-2.111189961E-1,1.820700020E-1
1.988423834E1,3.860099986E-2,-2.002370059E-1,2.333910018E-1
1.989824372E1,3.860099986E-2,-2.002370059E-1,2.333910018E-1
1.991224980E1,7.073999848E-3,-2.048970014E-1,2.206770033E-1
1.992625663E1,8.129999973E-3,-1.688890010E-1,1.705619991E-1
1.994026272E1,2.945600078E-2,-1.445149928E-1,2.265219986E-1
1.995426811E1,2.945600078E-2,-1.445149928E-1,2.265219986E-1
1.996827420E1,3.211599961E-2,-1.478019953E-1,1.771550030E-1
1.998228104E1,-9.239999927E-4,-1.725829989E-1,2.241950035E-1
1.999628713E1,-9.239999927E-4,-1.725829989E-1,2.241950035E-1
2.001029249E1,-1.639599912E-2,-1.929879934E-1,1.816730052E-1
2.002429856E1,-1.570699923E-2,-1.798010021E-1,1.504479945E-1
2.003830541E1,-1.570699923E-2,-1.798010021E-1,1.504479945E-1
2.005231145E1,7.677000016E-3,-1.666090041E-1,2.170500010E-1
2.006631686E1,-1.764000044E-3,-1.528200060E-1,2.465759963E-1
2.008032289E1,7.868999615E-3,-1.788650006E-1,2.218180001E-1
2.009432970E1,7.868999615E-3,-1.788650006E-1,2.218180001E-1
2.010833578E1,2.114900015E-2,-1.848340034E-1,1.919039935E-1
2.012234110E1,6.864900142E-2,-1.772239953E-1,2.099149972E-1
2.013634728E1,6.864900142E-2,-1.772239953E-1,2.099149972E-1
2.015035414E1,3.258899972E-2,-1.550479978E-1,1.628469974E-1
2.016436021E1,7.625000086E-3,-1.610510051E-1,1.679400057E-1
2.017836551E1,7.625000086E-3,-1.610510051E-1,1.679400057E-1
2.019237168E1,2.049200051E-2,-1.847060025E-1,2.009219974E-1
2.020637851E1,2.374500036E-2,-1.849689931E-1,2.158029974E-1
2.022038458E1,1.068800036E-2,-1.820600033E-1,2.067099959E-1
2.023438990E1,1.068800036E-2,-1.820600033E-1,2.067099959E-1
2.024839606E1,1.799000055E-2,-1.633509994E-1,1.795669943E-1
2.026240289E1,2.177900076E-2,-1.718689948E-1,1.945610046E-1
2.027640900E1,2.177900076E-2,-1.718689948E-1,1.945610046E-1
2.029041428E1,2.401600033E-2,-1.884150058E-1,2.245599926E-1
2.030442036E1,-7.594000082E-3,-1.699900031E-1,2.137279958E-1
2.031842724E1,-7.594000082E-3,-1.699900031E-1,2.137279958E-1
2.033243338E1,1.024099998E-2,-1.707099974E-1,2.699030042E-1
2.034643870E1,3.545999993E-3,-1.532479972E-1,1.195420027E-1
2.036044476E1,-1.532700006E-2,-1.374559999E-1,1.581860036E-1
2.037445161E1,-1.532700006E-2,-1.374559999E-1,1.581860036E-1
2.038845776E1,6.337000057E-3,-1.676570028E-1,2.116429955E-1
2.040246305E1,-4.197999835E-3,-1.664970070E-1,1.585029960E-1
2.041646915E1,-4.197999835E-3,-1.664970070E-1,1.585029960E-1
2.043047598E1,1.990799978E-2,-1.738180071E-1,3.244419992E-1
2.044448214E1,3.005599976E-2,-2.509990036E-1,2.634989917E-1
2.045848743E1,3.005599976E-2,-2.509990036E-1,2.634989917E-1
2.047249348E1,-1.041399967E-2,-2.210129946E-1,6.632799655E-2
2.048650032E1,3.227999900E-3,-1.713490039E-1,7.002600282E-2
2.050050642E1,4.530499876E-2,-1.326259971E-1,1.591259986E-1
2.051451182E1,4.530499876E-2,-1.326259971E-1,1.591259986E-1
2.052851786E1,5.088000000E-2,-1.399960071E-1,1.843840033E-1
2.054252470E1,2.066599950E-2,-1.626500040E-1,1.905660033E-1
2.055653075E1,2.066599950E-2,-1.626500040E-1,1.905660033E-1
2.057053613E1,1.328799967E-2,-1.486659944E-1,1.866739988E-1
2.058454219E1,7.110999897E-3,-1.284639984E-1,2.152159959E-1
2.059854903E1,7.110999897E-3,-1.284639984E-1,2.152159959E-1
2.061255511E1,1.604199968E-2,-1.852450073E-1,2.133979946E-1
2.062656040E1,1.579900086E-2,-2.113610059E-1,2.193080038E-1
2.064056659E1,-2.560899965E-2,-2.183759958E-1,2.196680009E-1
2.065457342E1,-2.560899965E-2,-2.183759958E-1,2.196680009E-1
2.066857951E1,-1.453599986E-2,-2.081519961E-1,1.219360009E-1
2.068258484E1,-4.292000085E-2,-1.480019987E-1,1.413760036E-1
2.069659099E1,-4.292000085E-2,-1.480019987E-1,1.413760036E-1
2.071059785E1,1.717199944E-2,-1.451359987E-1,1.899729967E-1
2.072460390E1,3.275600076E-2,-1.745489985E-1,2.284879982E-1
2.073860925E1,3.275600076E-2,-1.745489985E-1,2.284879982E-1
2.075261536E1,1.945000025E-3,-1.834360063E-1,2.274429947E-1
2.076662221E1,-3.612000030E-3,-1.956470013E-1,2.067220062E-1
2.078062837E1,-2.583000110E-3,-1.673900038E-1,1.579210013E-1
2.079463372E1,-2.583000110E-3,-1.673900038E-1,1.579210013E-1
2.080863981E1,8.785000071E-3,-1.516640037E-1,1.526010036E-1
2.082264665E1,6.345999893E-3,-1.645510048E-1,1.923509985E-1
2.083665273E1,6.345999893E-3,-1.645510048E-1,1.923509985E-1
2.085065811E1,1.840599999E-2,-1.870079935E-1,2.110269964E-1
2.086466421E1,1.693700068E-2,-1.936140060E-1,1.955019981E-1
2.087867107E1,1.693700068E-2,-1.936140060E-1,1.955019981E-1
2.089267715E1,-1.836000010E-3,-1.602199972E-1,2.189880013E-1
2.090668256E1,6.730000023E-4,-1.651799977E-1,1.963929981E-1
2.092068860E1,3.901699930E-2,-1.939489990E-1,2.068309933E-1
2.093469546E1,3.901699930E-2,-1.939489990E-1,2.068309933E-1
2.094870153E1,3.228000179E-2,-2.117590010E-1,2.354449928E-1
2.096270691E1,1.369400043E-2,-2.103420049E-1,2.953169942E-1
2.097671298E1,1.369400043E-2,-2.103420049E-1,2.953169942E-1
2.099071983E1,5.032999907E-3,-1.937209964E-1,2.986389995E-1
2.100472588E1,1.406699978E-2,-2.051140070E-1,2.573580146E-1
2.101873118E1,1.406699978E-2,-2.051140070E-1,2.573580146E-1
2.103273735E1,3.199999919E-4,-1.894569993E-1,2.356829941E-1
2.104674420E1,-1.288199984E-2,-1.751189977E-1,2.631390095E-1
2.106075030E1,-8.076000027E-3,-1.800699979E-1,2.605380118E-1
2.107475560E1,-8.076000027E-3,-1.800699979E-1,2.605380118E-1
2.108876168E1,2.921799943E-2,-1.578380018E-1,2.423699945E-1
2.110276852E1,2.388300002E-2,-1.603530049E-1,2.102510035E-1
2.111677464E1,2.388300002E-2,-1.603530049E-1,2.102510035E-1
2.113077996E1,1.357600000E-2,-1.661700010E-1,1.710759997E-1
2.114478604E1,2.121100016E-2,-2.006549984E-1,2.129819989E-1
2.115879288E1,2.121100016E-2,-2.006549984E-1,2.129819989E-1
2.117279901E1,4.106500000E-2,-1.806720048E-1,1.631709933E-1
2.118680432E1,4.097799957E-2,-2.070139945E-1,2.912969887E-1
2.120081039E1,-9.936000220E-3,-2.031259984E-1,1.027060002E-1
2.121481723E1,-9.936000220E-3,-2.031259984E-1,1.027060002E-1
2.122882330E1,-3.961399943E-2,-1.668320000E-1,1.293900013E-1
2.124282867E1,-2.578599937E-2,-1.531639993E-1,2.117089927E-1
2.125683473E1,-2.578599937E-2,-1.531639993E-1,2.117089927E-1
2.127084155E1,-3.990500048E-2,-1.799540073E-1,1.544370055E-1
2.128484764E1,-2.790099941E-2,-1.758109927E-1,3.033570051E-1
2.129885294E1,-2.790099941E-2,-1.758109927E-1,3.033570051E-1
2.131285909E1,-6.364999805E-3,-2.314230055E-1,3.312230110E-1
2.132686597E1,-7.708000019E-3,-2.083790004E-1,1.247939989E-1
2.134087204E1,-2.325000009E-3,-1.513070017E-1,6.595099717E-2
2.135487735E1,-2.325000009E-3,-1.513070017E-1,6.595099717E-2
2.136888342E1,5.299099907E-2,-9.492799640E-2,1.290210038E-1
2.138289025E1,5.545600131E-2,-1.437509954E-1,2.134149969E-1
2.139689643E1,5.545600131E-2,-1.437509954E-1,2.134149969E-1
2.141090173E1,-9.390999563E-3,-1.774020046E-1,2.166569978E-1
2.142490781E1,9.600000340E-5,-1.898349971E-1,2.389360070E-1
2.143891467E1,9.600000340E-5,-1.898349971E-1,2.389360070E-1
2.145292074E1,4.722300172E-2,-1.882970035E-1,2.080419958E-1
2.146692613E1,2.972700074E-2,-1.654299945E-1,1.795749962E-1
2.148093222E1,8.919999818E-4,-1.899490058E-1,1.780380011E-1
2.149493904E1,8.919999818E-4,-1.899490058E-1,1.780380011E-1
2.150894512E1,-4.598000087E-3,-1.789930016E-1,1.686870009E-1
2.152295043E1,9.553000331E-3,-1.968190074E-1,1.863259971E-1
2.153695656E1,9.553000331E-3,-1.968190074E-1,1.863259971E-1
2.155096342E1,4.199999850E-3,-1.543920040E-1,1.330119967E-1
2.156496951E1,1.574900001E-2,-1.391779929E-1,2.108210027E-1
2.157897479E1,1.574900001E-2,-1.391779929E-1,2.108210027E-1
2.159298083E1,2.160999924E-3,-1.746930033E-1,1.817750037E-1
2.160698767E1,-6.150000170E-2,-1.774870008E-1,1.563799977E-1
2.162099372E1,-6.430099905E-2,-1.856669933E-1,1.794569939E-1
2.163499910E1,-6.430099905E-2,-1.856669933E-1,1.794569939E-1
2.164900516E1,-3.111699969E-2,-1.728570014E-1,1.987089962E-1
2.166301200E1,2.170499973E-2,-1.344889998E-1,2.122260034E-1
2.167701808E1,2.170499973E-2,-1.344889998E-1,2.122260034E-1
2.169102346E1,3.841000050E-2,-1.471450031E-1,2.137220055E-1
2.170502955E1,6.585899740E-2,-1.683759987E-1,2.469609976E-1
2.171903637E1,6.585899740E-2,-1.683759987E-1,2.469609976E-1
2.173304244E1,6.750600040E-2,-1.861840039E-1,2.114370018E-1
2.174704772E1,3.154699877E-2,-1.771299988E-1,1.890819967E-1
2.176105377E1,-3.176999977E-3,-1.888779998E-1,1.686140001E-1
2.177506060E1,-3.176999977E-3,-1.888779998E-1,1.686140001E-1
2.178906678E1,2.822000068E-3,-1.531219929E-1,1.859149933E-1
2.180307207E1,4.259900004E-2,-1.707019955E-1,1.746560037E-1
2.181707816E1,4.259900004E-2,-1.707019955E-1,1.746560037E-1
2.183108502E1,3.582499921E-2,-1.830880046E-1,2.024219930E-1
2.184509114E1,-1.381599996E-2,-1.938759983E-1,1.842910051E-1
2.185909655E1,-1.381599996E-2,-1.938759983E-1,1.842910051E-1
2.187310265E1,-2.750300057E-2,-2.016369998E-1,1.829960048E-1
2.188710948E1,-2.670999989E-2,-1.848949939E-1,1.942870021E-1
2.190111556E1,-2.860999899E-3,-1.779160053E-1,2.248110026E-1
2.191512086E1,-2.860999899E-3,-1.779160053E-1,2.248110026E-1
2.192912704E1,3.234999953E-3,-1.220009997E-1,1.634770036E-1
2.194313387E1,1.702399924E-2,-1.154889986E-1,5.552000180E-2
2.195713997E1,1.702399924E-2,-1.154889986E-1,5.552000180E-2
2.197114526E1,6.446999963E-3,-1.334449947E-1,1.958319992E-1
2.198515135E1,-4.567899927E-2,-1.864259988E-1,1.230600029E-1
2.199915822E1,-4.567899927E-2,-1.864259988E-1,1.230600029E-1
2.201316432E1,3.158700094E-2,-2.216569930E-1,2.680689991E-1
2.202716967E1,2.638000064E-2,-2.341489941E-1,2.461879998E-1
2.204117578E1,2.587600052E-2,-1.755280048E-1,1.306509972E-1
2.205518258E1,2.587600052E-2,-1.755280048E-1,1.306509972E-1
2.206918864E1,4.363499954E-2,-1.442729980E-1,2.270299941E-2
2.208319394E1,1.829499938E-2,-1.202669963E-1,1.500370055E-1
2.209720002E1,1.829499938E-2,-1.202669963E-1,1.500370055E-1
2.211120686E1,-2.363899909E-2,-1.370539963E-1,2.074099928E-1
2.212521302E1,-2.076699957E-2,-1.810240000E-1,2.437459975E-1
2.213921831E1,-2.076699957E-2,-1.810240000E-1,2.437459975E-1
2.215322440E1,-2.264999971E-2,-1.685280055E-1,2.351469994E-1
2.216723125E1,-3.672000021E-3,-1.511140019E-1,2.136970013E-1
2.218123730E1,-8.679999970E-3,-1.746719927E-1,1.854159981E-1
2.219524262E1,-8.679999970E-3,-1.746719927E-1,1.854159981E-1
2.220924869E1,-5.089999759E-4,-2.309409976E-1,1.306850016E-1
2.222325559E1,1.418299973E-2,-1.639650017E-1,1.964969933E-1
2.223726160E1,1.418299973E-2,-1.639650017E-1,1.964969933E-1
2.225126687E1,-2.841999987E-3,-1.861409992E-1,1.181380004E-1
2.226527296E1,9.716000408E-3,-1.510419995E-1,1.738310009E-1
2.227927982E1,9.716000408E-3,-1.510419995E-1,1.738310009E-1
2.229328580E1,3.497099876E-2,-2.054850012E-1,2.057289928E-1
2.230729118E1,3.139699996E-2,-2.070540041E-1,2.095890045E-1
2.232129728E1,6.438999902E-3,-2.045609951E-1,1.748069972E-1
2.233530413E1,6.438999902E-3,-2.045609951E-1,1.748069972E-1
2.234931020E1,-1.194499992E-2,-1.929749995E-1,1.402249932E-1
2.236331549E1,-2.894500084E-2,-1.635390073E-1,1.989669949E-1
2.237732154E1,-2.894500084E-2,-1.635390073E-1,1.989669949E-1
2.239132842E1,-3.507899866E-2,-1.547850072E-1,2.034289986E-1
2.240533457E1,2.652999945E-3,-1.394490004E-1,2.448209971E-1
2.241933988E1,2.652999945E-3,-1.394490004E-1,2.448209971E-1
2.243334597E1,2.610900067E-2,-1.719930023E-1,2.152609974E-1
2.244735288E1,5.218200013E-2,-1.962459981E-1,1.834110022E-1
2.246135895E1,2.333099954E-2,-1.824640036E-1,1.865800023E-1
2.247536428E1,2.333099954E-2,-1.824640036E-1,1.865800023E-1
2.248937042E1,1.880900003E-2,-1.834709942E-1,1.656239927E-1
2.250337728E1,3.244699910E-2,-1.676349938E-1,1.766629964E-1
2.251738344E1,3.244699910E-2,-1.676349938E-1,1.766629964E-1
2.253138873E1,1.822800003E-2,-1.860149950E-1,2.036570013E-1
2.254539480E1,1.980999950E-3,-1.996079981E-1,2.246180028E-1
2.255940163E1,1.980999950E-3,-1.996079981E-1,2.246180028E-1
2.257340775E1,1.090900041E-2,-2.230210006E-1,2.256239951E-1
2.258741314E1,2.343400009E-2,-2.004999965E-1,2.066050023E-1
2.260141922E1,8.027000353E-3,-1.843889952E-1,2.318899930E-1
2.261542607E1,8.027000353E-3,-1.843889952E-1,2.318899930E-1
2.262943217E1,-3.253399953E-2,-1.406839937E-1,1.017140001E-1
2.264343747E1,-9.903999977E-3,-1.011079997E-1,1.287689954E-1
2.265744357E1,-9.903999977E-3,-1.011079997E-1,1.287689954E-1
2.267145044E1,-8.492999710E-3,-1.497900039E-1,2.185029984E-1
2.268545653E1,-4.363999888E-2,-1.645250022E-1,1.297670007E-1
2.269946192E1,-4.363999888E-2,-1.645250022E-1,1.297670007E-1
2.271346801E1,2.640300058E-2,-1.981330067E-1,3.408569992E-1
2.272747488E1,1.077399962E-2,-2.423550040E-1,3.066450059E-1
2.274148094E1,5.166000221E-3,-2.304240018E-1,1.466390043E-1
2.275548628E1,5.166000221E-3,-2.304240018E-1,1.466390043E-1
2.276949239E1,5.149399862E-2,-1.914049983E-1,8.719299734E-2
2.278349930E1,7.479999959E-2,-1.515779942E-1,1.479140073E-1
2.279750540E1,7.479999959E-2,-1.515779942E-1,1.479140073E-1
2.281151072E1,2.914600074E-2,-1.242460012E-1,1.745370030E-1
2.282551680E1,1.040400006E-2,-1.582030058E-1,2.062799931E-1
2.283952364E1,1.040400006E-2,-1.582030058E-1,2.062799931E-1
2.285352972E1,3.957000095E-3,-1.654500067E-1,2.261269987E-1
2.286753502E1,-7.583000232E-3,-1.777780056E-1,2.079630047E-1
2.288154118E1,-2.429500036E-2,-1.998790056E-1,1.758439988E-1
2.289554802E1,-2.429500036E-2,-1.998790056E-1,1.758439988E-1
2.290955408E1,-1.955500059E-2,-2.039089948E-1,1.737470031E-1
2.292355939E1,-5.409999867E-4,-1.782049984E-1,2.349649966E-1
2.293756544E1,-5.409999867E-4,-1.782049984E-1,2.349649966E-1
2.295157232E1,-1.351500023E-2,-1.920759976E-1,1.519320011E-1
2.296557839E1,-9.561999701E-3,-1.737029999E-1,1.717659980E-1
2.297958378E1,-9.561999701E-3,-1.737029999E-1,1.717659980E-1
2.299358987E1,5.121599883E-2,-1.811030060E-1,2.136359960E-1
2.300759672E1,4.918999970E-2,-1.894879937E-1,1.952880025E-1
2.302160277E1,8.430999704E-3,-1.837099940E-1,1.843270063E-1
2.303560808E1,8.430999704E-3,-1.837099940E-1,1.843270063E-1
2.304961416E1,-2.319099940E-2,-1.825339943E-1,1.808229983E-1
2.306362103E1,9.490000084E-3,-1.753900051E-1,1.975270063E-1
2.307762710E1,9.490000084E-3,-1.753900051E-1,1.975270063E-1
2.309163245E1,5.160999950E-3,-1.726800054E-1,2.079589963E-1
2.310563854E1,1.469200011E-2,-1.821870059E-1,2.433480024E-1
2.311964537E1,1.469200011E-2,-1.821870059E-1,2.433480024E-1
2.313365147E1,2.682399936E-2,-1.772069931E-1,1.696839929E-1
2.314765673E1,4.267600179E-2,-1.808370054E-1,1.909019947E-1
2.316166280E1,4.181899875E-2,-1.936749965E-1,2.130810022E-1
2.317566964E1,4.181899875E-2,-1.936749965E-1,2.130810022E-1
2.318967571E1,3.790999949E-2,-1.883029938E-1,2.021149993E-1
2.320368109E1,-2.832999919E-3,-1.842460036E-1,2.029220015E-1
2.321768716E1,-2.832999919E-3,-1.842460036E-1,2.029220015E-1
2.323169400E1,-6.060999818E-3,-1.834380031E-1,2.104980052E-1
2.324570005E1,-7.114999928E-3,-1.903010011E-1,1.901369989E-1
2.325970535E1,-7.114999928E-3,-1.903010011E-1,1.901369989E-1
2.327371141E1,1.094000041E-2,-1.893180013E-1,1.807339936E-1
2.328771826E1,1.152100042E-2,-1.957869977E-1,1.744309962E-1
2.330172443E1,-1.582100056E-2,-1.604740024E-1,1.682800055E-1
2.331572977E1,-1.582100056E-2,-1.604740024E-1,1.682800055E-1
2.332973585E1,-2.452000044E-2,-1.686380059E-1,1.814170033E-1
2.334374272E1,-3.401799873E-2,-1.649869978E-1,1.895190030E-1
2.335774879E1,-3.401799873E-2,-1.649869978E-1,1.895190030E-1
2.337175413E1,-1.015300024E-2,-1.769440025E-1,2.095019966E-1
2.338576029E1,-1.593199931E-2,-1.877070069E-1,2.513389885E-1
2.339976705E1,-1.593199931E-2,-1.877070069E-1,2.513389885E-1
2.341377318E1,1.350499969E-2,-1.868260056E-1,2.062859982E-1
2.342777850E1,1.870799996E-2,-1.965720057E-1,2.243400067E-1
2.344178457E1,2.660500072E-2,-1.643040031E-1,1.409430057E-1
2.345579146E1,2.660500072E-2,-1.643040031E-1,1.409430057E-1
2.346979752E1,1.069999998E-3,-1.506869942E-1,1.345849931E-1
2.348380282E1,7.282999810E-3,-1.810699999E-1,2.118519992E-1
2.349780890E1,7.282999810E-3,-1.810699999E-1,2.118519992E-1
2.351181575E1,-2.047000080E-2,-1.588400006E-1,1.845239997E-1
2.352582187E1,3.991999850E-2,-1.865430027E-1,3.571850061E-1
2.353982718E1,3.991999850E-2,-1.865430027E-1,3.571850061E-1
2.355383325E1,2.714700066E-2,-2.457430065E-1,2.459760010E-1
2.356784010E1,-2.921600081E-2,-2.240670025E-1,4.891699925E-2
2.358184618E1,2.346999943E-2,-1.841270030E-1,7.369399816E-2
2.359585151E1,2.346999943E-2,-1.841270030E-1,7.369399816E-2
2.360985758E1,6.355199963E-2,-1.463340074E-1,1.776490062E-1
2.362386444E1,1.468199957E-2,-1.559469998E-1,2.175260037E-1
2.363787054E1,1.468199957E-2,-1.559469998E-1,2.175260037E-1
2.365187592E1,6.890000077E-4,-1.539890021E-1,2.273080051E-1
2.366588200E1,-1.056700014E-2,-1.764920056E-1,1.971900016E-1
2.367988887E1,4.461000208E-3,-1.521960050E-1,1.722300053E-1
2.369389494E1,4.461000208E-3,-1.521960050E-1,1.722300053E-1
2.370790023E1,1.879799925E-2,-1.759070009E-1,1.826789975E-1
2.372190631E1,-1.313799992E-2,-1.953389943E-1,1.889809966E-1
2.373591315E1,-1.313799992E-2,-1.953389943E-1,1.889809966E-1
2.374991930E1,-1.116800029E-2,-1.968930066E-1,2.310750037E-1
2.376392460E1,-1.466799993E-2,-1.771329939E-1,1.652790010E-1
2.377793066E1,-1.466799993E-2,-1.771329939E-1,1.652790010E-1
2.379193753E1,-1.031900011E-2,-1.655700058E-1,1.782339960E-1
2.380594356E1,2.004699968E-2,-1.758230031E-1,2.220139951E-1
2.381994890E1,3.957499936E-2,-1.760849953E-1,2.553600073E-1
2.383395497E1,3.957499936E-2,-1.760849953E-1,2.553600073E-1
2.384796183E1,-1.112399995E-2,-2.096080035E-1,2.658329904E-1
2.386196792E1,-3.381700069E-2,-1.875730008E-1,2.424329966E-1
2.387597333E1,-3.381700069E-2,-1.875730008E-1,2.424329966E-1
2.388997940E1,-2.371600084E-2,-1.647100002E-1,1.968100071E-1
2.390398622E1,1.633999986E-3,-1.751970053E-1,2.311020046E-1
2.391799230E1,1.633999986E-3,-1.751970053E-1,2.311020046E-1
2.393199764E1,1.823900081E-2,-1.807489991E-1,2.553650141E-1
2.394600369E1,2.390800044E-2,-1.881079972E-1,2.502839863E-1
2.396001052E1,1.311700046E-2,-1.720679998E-1,2.236900032E-1
2.397401660E1,1.311700046E-2,-1.720679998E-1,2.236900032E-1
2.398802200E1,1.262899954E-2,-1.693599969E-1,2.248229980E-1
2.400202805E1,3.929200023E-2,-1.846410036E-1,2.101610005E-1
2.401603492E1,3.929200023E-2,-1.846410036E-1,2.101610005E-1
2.403004097E1,4.921700060E-2,-1.953620017E-1,1.734209955E-1
2.404404627E1,1.764300093E-2,-1.907510012E-1,1.893389970E-1
2.405805234E1,1.764300093E-2,-1.907510012E-1,1.893389970E-1
2.407205917E1,-7.065999787E-3,-2.048760056E-1,2.485159934E-1
2.408606526E1,-7.149000186E-3,-1.910170019E-1,2.374839932E-1
2.410007058E1,-2.449600026E-2,-1.549829990E-1,1.520670056E-1
2.411407676E1,-2.449600026E-2,-1.549829990E-1,1.520670056E-1
2.412808359E1,-1.445700042E-2,-1.950059980E-1,2.242919952E-1
2.414208965E1,1.613000035E-2,-1.713059992E-1,1.898470074E-1
2.415609498E1,1.613000035E-2,-1.713059992E-1,1.898470074E-1
2.417010107E1,1.565299928E-2,-1.662880033E-1,1.744710058E-1
2.418410791E1,1.294699963E-2,-1.520079970E-1,1.799589992E-1
2.419811401E1,1.294699963E-2,-1.520079970E-1,1.799589992E-1
2.421211935E1,-1.278300025E-2,-1.605300009E-1,1.736750007E-1
2.422612541E1,1.093799993E-2,-1.714870036E-1,2.101220042E-1
2.424013226E1,1.729400083E-2,-1.933030039E-1,2.425709963E-1
2.425413845E1,1.729400083E-2,-1.933030039E-1,2.425709963E-1
2.426814377E1,-8.248000406E-3,-1.912000030E-1,2.306479961E-1
2.428214986E1,1.548499987E-2,-1.702380031E-1,2.172690034E-1
2.429615668E1,1.548499987E-2,-1.702380031E-1,2.172690034E-1
2.431016275E1,-2.962999977E-3,-2.018920034E-1,1.106510013E-1
2.432416805E1,-1.487100031E-2,-1.392340064E-1,1.340789944E-1
2.433817413E1,-1.487100031E-2,-1.392340064E-1,1.340789944E-1
2.435218100E1,3.171300143E-2,-7.617300004E-2,1.802819967E-1
2.436618708E1,-3.306199983E-2,-1.712840050E-1,1.781959981E-1
2.438019246E1,-5.937600136E-2,-1.658319980E-1,2.000609934E-1
2.439419855E1,-5.937600136E-2,-1.658319980E-1,2.000609934E-1
2.440820539E1,1.806299947E-2,-2.558079958E-1,3.570750058E-1
2.442221147E1,1.003300026E-2,-2.246409953E-1,2.205390036E-1
2.443621679E1,1.003300026E-2,-2.246409953E-1,2.205390036E-1
2.445022287E1,1.281000022E-2,-1.598310024E-1,9.630200267E-2
2.446422970E1,4.263500124E-2,-1.290429980E-1,1.451099962E-1
2.447823579E1,4.263500124E-2,-1.290429980E-1,1.451099962E-1
2.449224106E1,6.114999950E-2,-1.385059953E-1,1.594340056E-1
2.450624714E1,5.980800092E-2,-1.498000026E-1,2.037840039E-1
2.452025400E1,3.364999965E-2,-1.827130020E-1,2.021960020E-1
2.453426004E1,3.364999965E-2,-1.827130020E-1,2.021960020E-1
2.454826545E1,1.089300029E-2,-1.627340019E-1,2.052260041E-1
2.456227149E1,8.420000086E-4,-1.771910042E-1,1.989119947E-1
2.457627832E1,8.420000086E-4,-1.771910042E-1,1.989119947E-1
2.459028439E1,-3.677399829E-2,-1.939959973E-1,1.637129933E-1
2.460428970E1,-4.635300115E-2,-2.038200051E-1,2.046200037E-1
2.461829577E1,-4.635300115E-2,-2.038200051E-1,2.046200037E-1
2.463230258E1,-2.288400009E-2,-1.646240056E-1,2.344450057E-1
2.464630866E1,-3.014699928E-2,-1.664099991E-1,1.189299971E-1
2.466031396E1,-2.155999886E-3,-1.385979950E-1,1.844999939E-1
2.467432004E1,-2.155999886E-3,-1.385979950E-1,1.844999939E-1
2.468832686E1,-1.223200001E-2,-1.828940064E-1,1.846950054E-1
2.470233293E1,-1.712699980E-2,-1.720820069E-1,1.956090033E-1
2.471633832E1,-1.712699980E-2,-1.720820069E-1,1.956090033E-1
2.473034442E1,-1.618400030E-2,-1.872500032E-1,1.930609941E-1
2.474435122E1,-2.220000024E-4,-1.601489931E-1,1.897300035E-1
2.475835733E1,-2.220000024E-4,-1.601489931E-1,1.897300035E-1
2.477236266E1,1.817700081E-2,-1.321379989E-1,2.165469974E-1
2.478636874E1,2.782399952E-2,-1.735260040E-1,2.351150066E-1
2.480037563E1,2.085899934E-2,-1.622769982E-1,2.264530063E-1
2.481438169E1,2.085899934E-2,-1.622769982E-1,2.264530063E-1
2.482838698E1,4.366099834E-2,-1.732739955E-1,1.944369972E-1
2.484239315E1,3.189799935E-2,-1.831510067E-1,2.016170025E-1
2.485639989E1,3.189799935E-2,-1.831510067E-1,2.016170025E-1
2.487040603E1,1.628500037E-2,-1.468019933E-1,1.718479991E-1
2.488441134E1,-1.761900075E-2,-1.330060065E-1,1.470109969E-1
2.489841740E1,-1.761900075E-2,-1.330060065E-1,1.470109969E-1
2.491242420E1,-2.913900092E-2,-1.427199990E-1,1.345870048E-1
2.492643027E1,-4.577299953E-2,-1.606409997E-1,1.414519995E-1
2.494043554E1,-1.804200001E-2,-2.007090002E-1,1.416199952E-1
2.495444158E1,-1.804200001E-2,-2.007090002E-1,1.416199952E-1
2.496844842E1,-2.301999927E-2,-1.972620040E-1,1.731929928E-1
2.498245448E1,5.140000139E-4,-1.725900024E-1,2.049539983E-1
2.499645980E1,5.140000139E-4,-1.725900024E-1,2.049539983E-1
2.501046587E1,-1.219000015E-2,-1.836400032E-1,2.419549972E-1
2.502447269E1,-1.668200083E-2,-1.447789967E-1,1.421159953E-1
2.503847878E1,-1.668200083E-2,-1.447789967E-1,1.421159953E-1
2.505248418E1,-1.047900040E-2,-1.242989972E-1,7.232899964E-2
2.506649031E1,2.887799963E-2,-9.946600348E-2,2.547369897E-1
2.508049720E1,-2.651299909E-2,-1.709260046E-1,1.708630025E-1
2.509450325E1,-2.651299909E-2,-1.709260046E-1,1.708630025E-1
2.510850855E1,5.661499873E-2,-2.186609954E-1,2.905809879E-1
2.512251464E1,3.240900114E-2,-2.580470145E-1,3.208479881E-1
2.513652148E1,3.240900114E-2,-2.580470145E-1,3.208479881E-1
2.515052758E1,1.280799974E-2,-2.120410055E-1,1.961770058E-1
2.516453294E1,9.638000280E-3,-1.605949998E-1,7.109700143E-2
2.517853904E1,9.638000280E-3,-1.605949998E-1,7.109700143E-2
2.519254590E1,1.360800024E-2,-1.308320016E-1,1.265690029E-1
2.520655197E1,1.370900031E-2,-1.342619956E-1,1.801870018E-1
2.522055735E1,-2.327699959E-2,-1.574860066E-1,1.948309988E-1
2.523456334E1,-2.327699959E-2,-1.574860066E-1,1.948309988E-1
2.524857016E1,-2.517700009E-2,-1.671340019E-1,2.315620035E-1
2.526257630E1,3.967000172E-3,-1.753910035E-1,2.111900002E-1
2.527658158E1,3.967000172E-3,-1.753910035E-1,2.111900002E-1
2.529058761E1,-8.939999971E-4,-1.831919998E-1,1.708990037E-1
2.530459441E1,-2.506499924E-2,-2.300750017E-1,1.404280066E-1
2.531860049E1,-2.506499924E-2,-2.300750017E-1,1.404280066E-1
2.533260580E1,-1.940999925E-2,-1.731580049E-1,2.412569970E-1
2.534661186E1,-7.096999791E-3,-1.776179969E-1,1.730480045E-1
2.536061863E1,1.308100019E-2,-1.690270007E-1,1.617040038E-1
2.537462474E1,1.308100019E-2,-1.690270007E-1,1.617040038E-1
2.538863001E1,6.627099961E-2,-1.703590006E-1,2.343290001E-1
2.540263607E1,6.521199644E-2,-1.743520051E-1,2.088000029E-1
2.541664292E1,6.521199644E-2,-1.743520051E-1,2.088000029E-1
2.543064903E1,1.916800067E-2,-1.813769937E-1,1.826130003E-1
2.544465437E1,-1.318200026E-2,-1.971800029E-1,1.356640011E-1
2.545866047E1,-1.318200026E-2,-1.971800029E-1,1.356640011E-1
2.547266730E1,-6.130999885E-3,-1.824280024E-1,1.660069972E-1
2.548667346E1,-3.207499906E-2,-1.568180025E-1,1.721570045E-1
2.550067876E1,-1.316799968E-2,-1.454270035E-1,2.282530069E-1
2.551468490E1,-1.316799968E-2,-1.454270035E-1,2.282530069E-1
2.552869177E1,3.076799959E-2,-1.943569928E-1,2.223069966E-1
2.554269786E1,3.902899846E-2,-2.035180032E-1,1.821469963E-1
2.555670319E1,3.902899846E-2,-2.035180032E-1,1.821469963E-1
2.557070931E1,1.948699914E-2,-2.086409926E-1,2.050119936E-1
2.558471616E1,6.309999735E-4,-2.087190002E-1,1.789029986E-1
2.559872222E1,6.309999735E-4,-2.087190002E-1,1.789029986E-1
2.561272751E1,-5.869999877E-4,-1.931789964E-1,1.629199982E-1
2.562673359E1,-2.501600049E-2,-1.761409938E-1,1.978330016E-1
2.564074039E1,-2.652399987E-2,-1.611309946E-1,1.987439990E-1
2.565474642E1,-2.652399987E-2,-1.611309946E-1,1.987439990E-1
2.566875172E1,-1.280399971E-2,-1.741210073E-1,2.000260055E-1
2.568275782E1,-2.040000074E-2,-1.913470030E-1,1.822520047E-1
2.569676466E1,-2.040000074E-2,-1.913470030E-1,1.822520047E-1
2.571077075E1,8.112000301E-3,-1.729640067E-1,2.317730039E-1
2.572477612E1,-7.433000021E-3,-2.103669941E-1,9.583099931E-2
2.573878220E1,-7.433000021E-3,-2.103669941E-1,9.583099931E-2
2.575278905E1,-9.721999988E-3,-1.585039943E-1,1.739950031E-1
2.576679513E1,5.481100082E-2,-1.368689984E-1,2.401099950E-1
2.578080045E1,-1.813800074E-2,-1.762969941E-1,1.347849965E-1
2.579480651E1,-1.813800074E-2,-1.762969941E-1,1.347849965E-1
2.580881337E1,1.293100044E-2,-1.820240021E-1,2.645910084E-1
2.582281948E1,5.502799898E-2,-2.424670011E-1,3.588869870E-1
2.583682480E1,5.502799898E-2,-2.424670011E-1,3.588869870E-1
2.585083088E1,-1.623000018E-3,-2.311429977E-1,2.487580031E-1
2.586483773E1,1.437299978E-2,-1.812379956E-1,1.001100019E-1
2.587884382E1,1.437299978E-2,-1.812379956E-1,1.001100019E-1
2.589284912E1,9.023199975E-2,-1.604679972E-1,1.470029950E-1
2.590685519E1,3.547099978E-2,-1.341409981E-1,1.598230004E-1
2.592086205E1,-2.086200006E-2,-1.219030023E-1,1.968100071E-1
2.593486813E1,-2.086200006E-2,-1.219030023E-1,1.968100071E-1
2.594887350E1,-2.091800049E-2,-1.597920060E-1,2.141360044E-1
2.596287959E1,-4.282999784E-3,-1.785819978E-1,2.491140068E-1
2.597688644E1,-4.282999784E-3,-1.785819978E-1,2.491140068E-1
2.599089254E1,-4.896000028E-3,-1.837790012E-1,2.140229940E-1
2.600489785E1,1.718899980E-2,-2.099670023E-1,1.959269941E-1
2.601890397E1,1.718899980E-2,-2.099670023E-1,1.959269941E-1
2.603291080E1,1.999700069E-2,-2.091860026E-1,1.584420055E-1
2.604691687E1,-1.869199984E-2,-1.793940067E-1,1.975660026E-1
2.606092222E1,-3.104100004E-2,-1.687690020E-1,1.362909973E-1
2.607492829E1,-3.104100004E-2,-1.687690020E-1,1.362909973E-1
2.608893517E1,1.133299991E-2,-1.561599970E-1,2.204100043E-1
2.610294128E1,2.020299993E-2,-1.817730069E-1,2.020689994E-1
2.611694657E1,2.020299993E-2,-1.817730069E-1,2.020689994E-1
2.613095264E1,-2.185600065E-2,-1.894280016E-1,2.198870033E-1
2.614495950E1,-1.195899956E-2,-1.917099953E-1,2.041630000E-1
2.615896557E1,-1.195899956E-2,-1.917099953E-1,2.041630000E-1
2.617297094E1,3.342000069E-3,-1.933819950E-1,1.887609959E-1
2.618697699E1,1.254600007E-2,-1.574980021E-1,2.000879943E-1
2.620098382E1,-4.954999778E-3,-1.512549967E-1,2.202800065E-1
2.621498988E1,-4.954999778E-3,-1.512549967E-1,2.202800065E-1
2.622899513E1,9.592000395E-3,-1.693850011E-1,1.954270005E-1
2.624300118E1,1.647200063E-2,-1.769399941E-1,1.863189936E-1
2.625700803E1,1.647200063E-2,-1.769399941E-1,1.863189936E-1
2.627101408E1,5.589300022E-2,-1.791310012E-1,2.042780071E-1
2.628501936E1,4.327600077E-2,-1.771499962E-1,1.912620068E-1
2.629902544E1,4.327600077E-2,-1.771499962E-1,1.912620068E-1
2.631303227E1,4.195999820E-3,-1.885509938E-1,1.611790061E-1
2.632703836E1,-9.215000086E-3,-1.824939996E-1,2.049960047E-1
2.634104368E1,2.616999904E-3,-1.928579956E-1,2.027409971E-1
2.635504979E1,2.616999904E-3,-1.928579956E-1,2.027409971E-1
2.636905663E1,4.459999909E-4,-1.937119961E-1,2.015900016E-1
2.638306271E1,6.029999815E-3,-1.928409934E-1,2.073760033E-1
2.639706804E1,6.029999815E-3,-1.928409934E-1,2.073760033E-1
2.641107412E1,5.522000138E-3,-1.721930057E-1,1.961070001E-1
2.642508081E1,-1.440500002E-2,-1.805949956E-1,1.938350052E-1
2.643908691E1,-1.440500002E-2,-1.805949956E-1,1.938350052E-1
2.645309232E1,-4.937000107E-3,-1.470109969E-1,1.977580041E-1
2.646709842E1,-2.279200032E-2,-1.544860005E-1,1.986739933E-1
2.648110518E1,8.189000189E-3,-1.792189926E-1,1.755300015E-1
2.649511136E1,8.189000189E-3,-1.792189926E-1,1.755300015E-1
2.650911663E1,1.567200013E-2,-1.812269986E-1,1.905270070E-1
2.652312267E1,3.447899967E-2,-1.779080033E-1,2.176019996E-1
2.653712953E1,3.447899967E-2,-1.779080033E-1,2.176019996E-1
2.655113562E1,-1.248999964E-3,-1.965969950E-1,1.836719960E-1
2.656514090E1,9.449999779E-4,-2.124550045E-1,2.609280050E-1
2.657914696E1,9.449999779E-4,-2.124550045E-1,2.609280050E-1
2.659315379E1,4.236000124E-3,-1.813289970E-1,1.377499998E-1
2.660715988E1,-2.385899983E-2,-1.494709998E-1,1.694719940E-1
2.662116517E1,-1.475800015E-2,-1.595000029E-1,2.422199994E-1
2.663517142E1,-1.475800015E-2,-1.595000029E-1,2.422199994E-1
2.664917826E1,-3.842600062E-2,-1.633969992E-1,1.748650074E-1
2.666318436E1,1.191399992E-2,-1.792979985E-1,3.536770046E-1
2.667718961E1,1.191399992E-2,-1.792979985E-1,3.536770046E-1
2.669119572E1,4.060399905E-2,-2.144200057E-1,3.218399882E-1
2.670520256E1,-4.093199968E-2,-2.064359933E-1,8.643700182E-2
2.671920864E1,-4.093199968E-2,-2.064359933E-1,8.643700182E-2
2.673321395E1,1.430799998E-2,-1.711689979E-1,4.230299965E-2
2.674722003E1,7.042499632E-2,-1.520210057E-1,1.893649995E-1
2.676122685E1,6.750500202E-2,-1.356700063E-1,2.382680029E-1
2.677523293E1,6.750500202E-2,-1.356700063E-1,2.382680029E-1
2.678923824E1,3.675499931E-2,-1.770509928E-1,2.360070050E-1
2.680324442E1,-3.615000052E-3,-1.822919995E-1,2.055650055E-1
2.681725122E1,-3.615000052E-3,-1.822919995E-1,2.055650055E-1
2.683125733E1,-1.896600053E-2,-1.863200068E-1,2.011809945E-1
2.684526266E1,-8.828000166E-3,-1.947329938E-1,2.169190049E-1
2.685926872E1,-8.828000166E-3,-1.947329938E-1,2.169190049E-1
2.687327551E1,2.338000108E-3,-2.024890035E-1,1.937810034E-1
2.688728160E1,-1.961899921E-2,-2.053129971E-1,2.202309966E-1
2.690128688E1,-4.007200152E-2,-1.789149940E-1,1.487720013E-1
2.691529299E1,-4.007200152E-2,-1.789149940E-1,1.487720013E-1
2.692929985E1,-6.271999795E-3,-1.415069997E-1,1.540919989E-1
2.694330585E1,4.013299942E-2,-1.651609987E-1,2.145999968E-1
2.695731113E1,4.013299942E-2,-1.651609987E-1,2.145999968E-1
2.697131722E1,3.191300109E-2,-1.870270073E-1,2.556180060E-1
2.698532409E1,-2.639300004E-2,-2.097540051E-1,2.406519949E-1
2.699933017E1,-2.639300004E-2,-2.097540051E-1,2.406519949E-1
2.701333547E1,-2.249299921E-2,-2.089370042E-1,2.527979910E-1
2.702734158E1,3.414999926E-3,-1.757770032E-1,2.198320031E-1
2.704134836E1,8.825000376E-3,-1.620689929E-1,2.607659996E-1
2.705535448E1,8.825000376E-3,-1.620689929E-1,2.607659996E-1
2.706935983E1,1.767699979E-2,-1.634469926E-1,2.434560061E-1
2.708336587E1,3.579099849E-2,-1.762530059E-1,2.306530029E-1
2.709737272E1,3.579099849E-2,-1.762530059E-1,2.306530029E-1
2.711137884E1,2.324699983E-2,-1.925159991E-1,1.767770052E-1
2.712538413E1,-7.859999896E-4,-1.664019972E-1,1.947679967E-1
2.713939022E1,-7.859999896E-4,-1.664019972E-1,1.947679967E-1
2.715339713E1,2.125399932E-2,-1.608240008E-1,1.724449992E-1
2.716740323E1,1.690999954E-3,-1.824519932E-1,1.765020043E-1
2.718140861E1,-1.582599990E-2,-1.921129972E-1,2.065539956E-1
2.719541471E1,-1.582599990E-2,-1.921129972E-1,2.065539956E-1
2.720942157E1,1.504800003E-2,-1.977840066E-1,2.123969942E-1
2.722342757E1,1.708200015E-2,-1.988060027E-1,2.245610058E-1
2.723743294E1,1.708200015E-2,-1.988060027E-1,2.245610058E-1
2.725143904E1,9.994000196E-3,-1.714950055E-1,1.900050044E-1
2.726544586E1,-2.334000077E-3,-1.616819948E-1,1.765590012E-1
2.727945197E1,-2.334000077E-3,-1.616819948E-1,1.765590012E-1
2.729345733E1,2.040899917E-2,-1.671389937E-1,2.028760016E-1
2.730746336E1,3.465899825E-2,-1.780560017E-1,2.017010003E-1
2.732147021E1,5.111800134E-2,-1.783960015E-1,2.222319990E-1
2.733547629E1,5.111800134E-2,-1.783960015E-1,2.222319990E-1
2.734948159E1,2.575800009E-2,-1.721860021E-1,2.186769992E-1
2.736348769E1,-9.087000042E-3,-1.898210049E-1,2.375610024E-1
2.737749449E1,-9.087000042E-3,-1.898210049E-1,2.375610024E-1
2.739150056E1,9.732999839E-3,-1.764609963E-1,2.118400037E-1
2.740550583E1,5.040999968E-3,-1.741600037E-1,2.585259974E-1
2.741951190E1,5.040999968E-3,-1.741600037E-1,2.585259974E-1
2.743351873E1,1.282699965E-2,-1.710889935E-1,1.168050021E-1
2.744752481E1,-1.679000072E-2,-1.562159956E-1,1.386130005E-1
2.746153012E1,1.114299987E-2,-1.026460007E-1,2.326990068E-1
2.747553621E1,1.114299987E-2,-1.026460007E-1,2.326990068E-1
2.748954304E1,-4.294199869E-2,-1.732040048E-1,1.513130069E-1
2.750354914E1,-3.288500011E-2,-1.899359971E-1,2.805210054E-1
2.751755447E1,-3.288500011E-2,-1.899359971E-1,2.805210054E-1
2.753156058E1,2.182500064E-2,-2.393600047E-1,2.989999950E-1
2.754556741E1,-8.533000015E-3,-2.215960026E-1,1.645240039E-1
2.755957351E1,-8.533000015E-3,-2.215960026E-1,1.645240039E-1
2.757357890E1,1.190999988E-3,-1.552020013E-1,9.818200022E-2
2.758758500E1,5.279500037E-2,-1.255179942E-1,1.636669934E-1
2.760159185E1,7.167699933E-2,-1.472679973E-1,1.672720015E-1
2.761559794E1,7.167699933E-2,-1.472679973E-1,1.672720015E-1
2.762960323E1,2.906800061E-2,-1.426070035E-1,1.629289985E-1
2.764360934E1,9.383000433E-3,-1.644549966E-1,2.334900051E-1
2.765761616E1,9.383000433E-3,-1.644549966E-1,2.334900051E-1
2.767162218E1,-1.413199957E-2,-1.611299962E-1,2.324579954E-1
2.768562748E1,-3.334000008E-3,-1.795679927E-1,2.176710069E-1
2.769963353E1,-3.334000008E-3,-1.795679927E-1,2.176710069E-1
2.771364036E1,1.732500084E-2,-1.804790050E-1,1.705899984E-1
2.772764642E1,2.279900014E-2,-1.898940057E-1,2.154040039E-1
2.774165169E1,1.556299999E-2,-1.464779973E-1,1.685879976E-1
2.775565776E1,1.556299999E-2,-1.464779973E-1,1.685879976E-1
2.776966459E1,2.570899948E-2,-1.666299999E-1,1.034919992E-1
2.778367065E1,1.119900029E-2,-1.723109931E-1,2.144590020E-1
