"Time (s)","Linear Acceleration x (m/s^2)","Linear Acceleration y (m/s^2)","Linear Acceleration z (m/s^2)"
2.186598700E-2,-3.080280125E-1,2.664799988E-2,3.933619857E-1
3.587161700E-2,-3.801839948E-1,4.004549980E-1,2.564099990E-2
4.987644900E-2,-3.698360026E-1,3.810339868E-1,-1.126839966E-1
6.388217400E-2,-2.042869925E-1,3.576000035E-1,-1.405930072E-1
7.788852100E-2,-2.042869925E-1,3.576000035E-1,-1.405930072E-1
9.189408700E-2,-1.862570047E-1,3.866150081E-1,7.650000043E-4
1.058990300E-1,-1.292430013E-1,3.300150037E-1,8.169899881E-2
1.199046550E-1,-1.292430013E-1,3.300150037E-1,8.169899881E-2
1.339110780E-1,-1.062230021E-1,1.338720024E-1,3.693259954E-1
1.479167270E-1,-4.311100021E-2,2.044500038E-2,2.795020044E-1
1.619215530E-1,-4.311100021E-2,2.044500038E-2,2.795020044E-1
1.759271930E-1,-2.254129946E-1,1.495029926E-1,3.057000041E-2
1.899335820E-1,-3.560500145E-1,3.026759923E-1,-2.413039953E-1
2.039391980E-1,-1.928820014E-1,1.385470033E-1,-1.832199991E-1
2.179440680E-1,-1.928820014E-1,1.385470033E-1,-1.832199991E-1
2.319496970E-1,-1.029089987E-1,-1.906899922E-2,-3.277400136E-2
2.459561210E-1,-2.565819919E-1,7.625900209E-2,-9.754700214E-2
2.599617360E-1,-2.565819919E-1,7.625900209E-2,-9.754700214E-2
2.739666070E-1,-3.614720106E-1,7.205600291E-2,-4.030919969E-1
2.879722270E-1,-3.438769877E-1,4.142399877E-2,-8.433930278E-1
3.019786400E-1,-3.438769877E-1,4.142399877E-2,-8.433930278E-1
3.159842650E-1,-3.009769917E-1,2.597239912E-1,-1.070958972E0
3.299891400E-1,-2.854419947E-1,5.296289921E-1,-1.366325974E0
3.439947560E-1,-1.959400028E-1,9.049170017E-1,-1.607301950E0
3.580011350E-1,-1.959400028E-1,9.049170017E-1,-1.607301950E0
3.720067610E-1,-5.896509886E-1,1.226161003E0,-1.843500972E0
3.860116110E-1,-6.809669733E-1,1.658957958E0,-1.848683000E0
4.000172120E-1,-6.809669733E-1,1.658957958E0,-1.848683000E0
4.140235780E-1,1.295430064E-1,2.182542086E0,-1.974771023E0
4.280291780E-1,4.187439978E-1,2.493882895E0,-2.582246065E0
4.420340110E-1,4.187439978E-1,2.493882895E0,-2.582246065E0
4.560396030E-1,-5.221679807E-1,2.394593954E0,-2.074186087E0
4.700459640E-1,-1.202208996E0,2.324508905E0,-2.133135080E0
4.840515400E-1,-1.413930058E-1,2.043430090E0,-1.686329007E0
4.980563620E-1,-1.413930058E-1,2.043430090E0,-1.686329007E0
5.120619730E-1,-1.734097958E0,9.898840189E-1,-1.098639011E0
5.260683620E-1,-3.352580070E-1,4.404790103E-1,-8.415660262E-1
5.400739680E-1,-3.352580070E-1,4.404790103E-1,-8.415660262E-1
5.540787330E-1,-6.559230089E-1,-4.522359967E-1,-1.097197056E0
5.680844150E-1,-1.227741003E0,-8.884260058E-1,-4.759469926E-1
5.820906890E-1,-1.227741003E0,-8.884260058E-1,-4.759469926E-1
5.960962800E-1,1.424497962E0,-2.780289948E-1,-4.512889981E-1
6.101012190E-1,2.042201042E0,-1.593549013E0,-1.543710947E0
6.241068340E-1,1.215595961E0,-1.329655051E0,-1.356045008E0
6.381132230E-1,1.215595961E0,-1.329655051E0,-1.356045008E0
6.521188580E-1,8.907400072E-2,-1.438074946E0,-1.256099995E-2
6.661237230E-1,3.682950139E-1,-1.219066024E0,1.513684988E0
6.801293430E-1,3.682950139E-1,-1.219066024E0,1.513684988E0
6.941356890E-1,1.236212015E0,-7.952820063E-1,3.538758993E0
7.081413430E-1,1.770385027E0,8.640409708E-1,5.256604195E0
7.221461800E-1,1.770385027E0,8.640409708E-1,5.256604195E0
7.361517950E-1,1.078964949E0,1.923671007E0,3.343267918E0
7.501581840E-1,9.484310150E-1,7.561830282E-1,2.304533958E0
7.641637990E-1,1.177335024E0,-9.718949795E-1,1.405418038E0
7.781686850E-1,1.177335024E0,-9.718949795E-1,1.405418038E0
7.921743050E-1,1.292819977E0,-8.984379768E-1,1.510056973E0
8.061807040E-1,1.026687026E0,2.627559900E-1,1.462932944E0
8.201863430E-1,1.026687026E0,2.627559900E-1,1.462932944E0
8.341912030E-1,8.557199836E-1,5.675380230E-1,1.618600041E-1
8.481967950E-1,1.602831960E0,1.619720012E-1,-6.592239738E-1
8.622031410E-1,1.602831960E0,1.619720012E-1,-6.592239738E-1
8.762087380E-1,1.961604953E0,-1.270485997E0,-1.336055994E0
8.902135930E-1,1.885609031E0,-2.555090904E0,-1.190984964E0
9.042192420E-1,1.016185999E0,-3.034265041E0,-8.432599902E-2
9.182256170E-1,1.016185999E0,-3.034265041E0,-8.432599902E-2
9.322312270E-1,6.184120178E-1,-2.043879986E0,-1.146380007E-1
9.462361010E-1,-3.408820033E-1,-1.209715962E0,-1.823315024E0
9.602416880E-1,-3.408820033E-1,-1.209715962E0,-1.823315024E0
9.742479630E-1,1.516900063E-1,-1.536983013E0,5.238088131E0
9.882535250E-1,-4.914770126E-1,-2.330431938E0,4.130006790E0
1.002258438E0,-4.914770126E-1,-2.330431938E0,4.130006790E0
1.016264030E0,3.800717115E0,-3.748594999E0,5.909431934E0
1.030270409E0,1.808868051E0,-1.656447053E0,1.256664991E0
1.044275996E0,1.640470028E-1,1.227950007E-1,-3.353239894E-1
1.058280804E0,1.640470028E-1,1.227950007E-1,-3.353239894E-1
1.072286462E0,-2.357600033E-1,3.903670013E-1,2.432990074E-1
1.086292823E0,-1.287106991E0,-2.542349994E-1,-3.130867004E0
1.100298433E0,-1.287106991E0,-2.542349994E-1,-3.130867004E0
1.114303309E0,-1.329350948E0,5.177130103E-1,-3.515938044E0
1.128308909E0,-5.292490125E-1,3.532820046E-1,-3.733144045E0
1.142315299E0,-5.292490125E-1,3.532820046E-1,-3.733144045E0
1.156320949E0,1.518586040E0,-7.280179858E-1,2.156114101E0
1.170325785E0,2.692498922E0,-1.966076970E0,6.130577087E0
1.184331454E0,9.156839848E-1,-2.096137047E0,1.147397995E0
1.198337905E0,9.156839848E-1,-2.096137047E0,1.147397995E0
1.212343531E0,-1.856389940E-1,-5.442649722E-1,8.361179829E-1
1.226348353E0,5.062099919E-2,5.742130280E-1,3.574770093E-1
1.240353934E0,5.062099919E-2,5.742130280E-1,3.574770093E-1
1.254360295E0,6.974499673E-2,6.569859982E-1,2.214930058E-1
1.268365934E0,1.684630066E-1,1.400150061E-1,4.642750025E-1
1.282370752E0,1.684630066E-1,1.400150061E-1,4.642750025E-1
1.296376501E0,2.939580083E-1,-3.742980063E-1,-8.371900022E-2
1.310382848E0,2.327229977E-1,-3.353480101E-1,-2.565200068E-2
1.324388400E0,2.175160050E-1,-2.931529880E-1,1.579159945E-1
1.338393338E0,2.175160050E-1,-2.931529880E-1,1.579159945E-1
1.352398968E0,2.034610063E-1,-3.029780090E-1,2.177869976E-1
1.366405347E0,1.582099944E-1,-3.012320101E-1,1.598480046E-1
1.380411001E0,1.582099944E-1,-3.012320101E-1,1.598480046E-1
1.394415838E0,1.504829973E-1,-2.841979861E-1,1.739329994E-1
1.408421410E0,1.834480017E-1,-2.512089908E-1,2.484779954E-1
1.422427790E0,1.820169985E-1,-2.249190062E-1,2.674399912E-1
1.436433476E0,1.820169985E-1,-2.249190062E-1,2.674399912E-1
1.450438337E0,1.590780020E-1,-1.486809999E-1,2.253720015E-1
1.464444005E0,1.347959936E-1,-1.419599950E-1,1.801059991E-1
1.478450381E0,1.347959936E-1,-1.419599950E-1,1.801059991E-1
1.492455982E0,1.050530002E-1,-1.390530020E-1,1.549009979E-1
1.506460789E0,1.174120009E-1,-2.111449987E-1,1.780370027E-1
1.520466419E0,1.174120009E-1,-2.111449987E-1,1.780370027E-1
1.534472803E0,1.153530031E-1,-2.358489931E-1,2.236029953E-1
1.548478410E0,1.364379972E-1,-2.236769944E-1,2.408419997E-1
1.562483280E0,1.603319943E-1,-1.927330047E-1,1.533609927E-1
1.576488895E0,1.603319943E-1,-1.927330047E-1,1.533609927E-1
1.590495289E0,1.617400050E-1,-1.528169960E-1,1.933429986E-1
1.604500885E0,1.553290039E-1,-1.395010054E-1,2.074670047E-1
1.618505813E0,1.553290039E-1,-1.395010054E-1,2.074670047E-1
1.632511463E0,1.495739967E-1,-1.380269974E-1,2.013510019E-1
1.646517718E0,1.536439955E-1,-1.461170018E-1,2.115820050E-1
1.660523347E0,1.536439955E-1,-1.461170018E-1,2.115820050E-1
1.674528275E0,1.526840031E-1,-1.879339963E-1,2.172500044E-1
1.688533914E0,1.495379955E-1,-2.152680010E-1,1.997040063E-1
1.702540323E0,1.505379975E-1,-2.048539966E-1,1.891140044E-1
1.716545915E0,1.505379975E-1,-2.048539966E-1,1.891140044E-1
1.730550761E0,1.240150034E-1,-1.982090026E-1,1.960120052E-1
1.744556376E0,1.162410006E-1,-1.804829985E-1,1.757960021E-1
1.758562736E0,1.162410006E-1,-1.804829985E-1,1.757960021E-1
1.772568332E0,1.219569966E-1,-1.811340004E-1,1.807329953E-1
1.786573164E0,1.261669993E-1,-1.639900059E-1,1.752910018E-1
1.800578780E0,1.261669993E-1,-1.639900059E-1,1.752910018E-1
1.814585173E0,1.149749979E-1,-1.432330012E-1,1.842260063E-1
1.828590804E0,1.220439970E-1,-1.412999928E-1,1.858019978E-1
1.842595616E0,1.225150004E-1,-1.573130041E-1,1.893959939E-1
1.856601270E0,1.225150004E-1,-1.573130041E-1,1.893959939E-1
1.870607664E0,9.824100137E-2,-1.119799986E-1,2.076579928E-1
1.884613285E0,8.859000355E-2,-9.362100065E-2,2.451310009E-1
1.898618135E0,8.859000355E-2,-9.362100065E-2,2.451310009E-1
1.912623750E0,1.113250032E-1,-1.105099991E-1,2.256930023E-1
1.926630116E0,9.994299710E-2,-1.093169972E-1,2.326959968E-1
1.940635731E0,9.994299710E-2,-1.093169972E-1,2.326959968E-1
1.954640582E0,7.973700017E-2,-1.047950014E-1,2.246579975E-1
1.968646217E0,8.885300159E-2,-1.056080014E-1,2.297089994E-1
1.982652596E0,8.487100154E-2,-8.694499731E-2,9.760099649E-2
1.996658212E0,8.487100154E-2,-8.694499731E-2,9.760099649E-2
2.010663111E0,1.050890014E-1,-1.057559997E-1,1.857959926E-1
2.024668702E0,1.231430024E-1,-1.196390018E-1,2.475229949E-1
2.038675068E0,1.231430024E-1,-1.196390018E-1,2.475229949E-1
2.052680684E0,9.491200000E-2,-1.062650010E-1,2.163819969E-1
2.066685496E0,9.921599925E-2,-7.127799839E-2,8.242499828E-2
2.080691135E0,9.921599925E-2,-7.127799839E-2,8.242499828E-2
2.094697496E0,8.743199706E-2,-6.508799642E-2,2.337940037E-1
2.108703116E0,8.133599907E-2,-5.439300090E-2,2.440740019E-1
2.122707919E0,4.182500020E-2,-1.848400012E-2,1.838839948E-1
2.136713554E0,4.182500020E-2,-1.848400012E-2,1.838839948E-1
2.150719933E0,4.431299865E-2,-5.991199985E-2,1.894779950E-1
2.164725559E0,3.576099873E-2,-1.094060019E-1,2.138999999E-1
2.178730419E0,3.576099873E-2,-1.094060019E-1,2.138999999E-1
2.192736039E0,6.491199881E-2,-9.674900025E-2,2.272019982E-1
2.206742414E0,9.831500053E-2,-8.330500126E-2,2.369190007E-1
2.220748035E0,9.831500053E-2,-8.330500126E-2,2.369190007E-1
2.234752905E0,9.109000117E-2,-5.169900134E-2,2.442660034E-1
2.248758515E0,8.046399802E-2,-4.207599908E-2,2.236600071E-1
2.262764885E0,6.008100137E-2,-2.880099975E-2,2.152439952E-1
2.276770524E0,6.008100137E-2,-2.880099975E-2,2.152439952E-1
2.290775423E0,4.691899940E-2,-3.296900168E-2,1.963900030E-1
2.304781035E0,4.325899854E-2,-5.331299827E-2,2.337359935E-1
2.318787366E0,4.325899854E-2,-5.331299827E-2,2.337359935E-1
2.332792929E0,-1.990000019E-4,-4.179200158E-2,1.426230073E-1
2.346797852E0,6.063000113E-2,-6.744399667E-2,1.382959932E-1
2.360803462E0,6.063000113E-2,-6.744399667E-2,1.382959932E-1
2.374809775E0,7.107400149E-2,-7.452800125E-2,2.230519950E-1
2.388815390E0,5.403700098E-2,-4.339199886E-2,2.310640067E-1
2.402820246E0,4.567899927E-2,-6.268099695E-2,2.379509956E-1
2.416825833E0,4.567899927E-2,-6.268099695E-2,2.379509956E-1
2.430832228E0,4.705699906E-2,-2.971200086E-2,2.484080046E-1
2.444837876E0,5.387200043E-2,-2.630100027E-2,2.421640009E-1
2.458842708E0,5.387200043E-2,-2.630100027E-2,2.421640009E-1
2.472848329E0,5.189400166E-2,-3.917900100E-2,2.220280021E-1
2.486854718E0,7.772500068E-2,-3.029499948E-2,2.517899871E-1
2.500860310E0,7.772500068E-2,-3.029499948E-2,2.517899871E-1
2.514865199E0,8.102999628E-2,-4.834000021E-2,2.408570051E-1
2.528870871E0,7.641500235E-2,-2.913999930E-2,2.041250020E-1
2.542877276E0,8.278299868E-2,-2.284500003E-2,2.185740024E-1
2.556882905E0,8.278299868E-2,-2.284500003E-2,2.185740024E-1
2.570887780E0,7.021000236E-2,-5.999999848E-5,1.957750022E-1
2.584893448E0,5.522599816E-2,-1.756200008E-2,2.118809968E-1
2.598899842E0,5.522599816E-2,-1.756200008E-2,2.118809968E-1
2.612905424E0,2.804199979E-2,-1.810600050E-2,2.199130058E-1
2.626910390E0,2.628700063E-2,-3.270100057E-2,2.239030004E-1
2.640916001E0,2.628700063E-2,-3.270100057E-2,2.239030004E-1
2.654922366E0,3.487300128E-2,-3.791499883E-2,2.449280024E-1
2.668927987E0,3.809999907E-3,-3.147799894E-2,2.295230031E-1
2.682932813E0,-2.300000051E-3,-4.578100145E-2,2.633379996E-1
2.696938433E0,-2.300000051E-3,-4.578100145E-2,2.633379996E-1
2.710944861E0,3.485599905E-2,-4.171999916E-2,2.551470101E-1
2.724950443E0,2.064199932E-2,-1.602800004E-2,2.417619973E-1
2.738955266E0,2.064199932E-2,-1.602800004E-2,2.417619973E-1
2.752960861E0,9.015999734E-3,-1.316499989E-2,2.167620063E-1
2.766967222E0,1.840100065E-2,-1.348599978E-2,1.974679977E-1
2.780972842E0,1.840100065E-2,-1.348599978E-2,1.974679977E-1
2.794977616E0,3.930699825E-2,4.112999886E-3,1.928150058E-1
2.808983214E0,4.700199887E-2,-3.943800181E-2,1.742970049E-1
2.822989598E0,7.523400337E-2,-7.306999713E-2,2.557370067E-1
2.836995199E0,7.523400337E-2,-7.306999713E-2,2.557370067E-1
2.851000064E0,7.389800251E-2,-6.547900289E-2,1.336320043E-1
2.865005655E0,8.211699873E-2,-7.391099632E-2,1.836149991E-1
2.879012035E0,8.211699873E-2,-7.391099632E-2,1.836149991E-1
2.893017718E0,5.062500015E-2,-3.057499975E-2,3.018859923E-1
2.907022574E0,3.164400160E-2,-4.172999877E-3,2.680720091E-1
2.921028233E0,3.164400160E-2,-4.172999877E-3,2.680720091E-1
2.935034521E0,1.835400052E-2,1.595499925E-2,2.028920054E-1
2.949040160E0,2.915599942E-2,-1.348000020E-3,2.267740071E-1
2.963045078E0,2.465499938E-2,-3.678100184E-2,2.078189999E-1
2.977050728E0,2.465499938E-2,-3.678100184E-2,2.078189999E-1
2.991057088E0,4.206100106E-2,-6.301700324E-2,2.150609940E-1
3.005062694E0,3.948400170E-2,-5.554199964E-2,2.460979968E-1
3.019067560E0,3.948400170E-2,-5.554199964E-2,2.460979968E-1
3.033073179E0,4.318600148E-2,-4.495500028E-2,2.318139970E-1
3.047079550E0,3.202499822E-2,-2.668300085E-2,2.103099972E-1
3.061085160E0,3.202499822E-2,-2.668300085E-2,2.103099972E-1
3.075090026E0,2.067100070E-2,-1.073300000E-2,2.167750001E-1
3.089095689E0,1.846499927E-2,-2.162499912E-2,2.284079939E-1
3.103102031E0,4.449000116E-3,-2.597600035E-2,2.760410011E-1
3.117107631E0,4.449000116E-3,-2.597600035E-2,2.760410011E-1
3.131112487E0,1.504599955E-2,-2.712200023E-2,1.882340014E-1
3.145118108E0,2.304000035E-2,-4.320799932E-2,2.101159990E-1
3.159124477E0,2.304000035E-2,-4.320799932E-2,2.101159990E-1
3.173130118E0,1.866599917E-2,-3.247600049E-2,2.156450003E-1
3.187134939E0,4.270999879E-2,-1.869199984E-2,1.975490004E-1
3.201140588E0,4.270999879E-2,-1.869199984E-2,1.975490004E-1
3.215146987E0,5.272699893E-2,-9.603999555E-3,2.416629940E-1
3.229152631E0,6.889300048E-2,6.916000042E-3,2.463649958E-1
3.243157512E0,4.848099872E-2,-6.320000160E-3,2.589110136E-1
3.257163117E0,4.848099872E-2,-6.320000160E-3,2.589110136E-1
3.271169521E0,4.999300092E-2,-1.614700072E-2,2.409210056E-1
3.285175107E0,4.077899829E-2,-3.456600010E-2,2.450650036E-1
3.299179895E0,4.077899829E-2,-3.456600010E-2,2.450650036E-1
3.313185492E0,2.717499994E-2,-1.991299912E-2,2.225849926E-1
3.327191900E0,1.582100056E-2,-2.338599972E-2,2.173960060E-1
3.341197525E0,1.582100056E-2,-2.338599972E-2,2.173960060E-1
3.355202366E0,1.892800070E-2,-3.569899872E-2,2.078649998E-1
3.369208020E0,1.975299977E-2,-3.914099932E-2,2.066999972E-1
3.383214390E0,3.237099946E-2,-5.308799818E-2,2.153159976E-1
3.397219991E0,3.237099946E-2,-5.308799818E-2,2.153159976E-1
3.411224809E0,1.142499968E-2,-4.004999995E-2,2.409899980E-1
3.425230434E0,3.591300175E-2,-3.261699900E-2,2.231969982E-1
3.439236814E0,3.591300175E-2,-3.261699900E-2,2.231969982E-1
3.453242491E0,3.371499851E-2,-4.662499949E-2,2.394769937E-1
3.467247337E0,2.563999966E-2,-5.741000175E-3,2.175910026E-1
3.481252953E0,2.563999966E-2,-5.741000175E-3,2.175910026E-1
3.495259357E0,2.530000056E-4,-6.647000089E-3,2.592670023E-1
3.509264940E0,3.062500060E-2,-1.900099963E-2,2.364639938E-1
3.523269882E0,1.202899963E-2,-1.005099993E-2,2.424560040E-1
3.537275453E0,1.202899963E-2,-1.005099993E-2,2.424560040E-1
3.551281824E0,-1.733000041E-3,-1.178499963E-2,2.472160012E-1
3.565287444E0,2.105700038E-2,-3.331499919E-2,2.699739933E-1
3.579292381E0,2.105700038E-2,-3.331499919E-2,2.699739933E-1
3.593297954E0,1.555999974E-3,-1.507799979E-2,1.479920000E-1
3.607304334E0,1.970699988E-2,-5.160300061E-2,2.053679973E-1
3.621309987E0,1.970699988E-2,-5.160300061E-2,2.053679973E-1
3.635314828E0,8.578799665E-2,-8.488299698E-2,2.947939932E-1
3.649320387E0,3.883900121E-2,-5.219399929E-2,1.842480004E-1
3.663326751E0,7.693699747E-2,-5.915699899E-2,1.385149956E-1
3.677332387E0,7.693699747E-2,-5.915699899E-2,1.385149956E-1
3.691337228E0,4.575299844E-2,-2.615199983E-2,3.216379881E-1
3.705342877E0,2.615199983E-2,-7.203999907E-3,2.762509882E-1
3.719349300E0,2.615199983E-2,-7.203999907E-3,2.762509882E-1
3.733354934E0,1.550399978E-2,1.966200024E-2,1.949670017E-1
3.747359761E0,-1.114699990E-2,1.769999944E-4,1.935600042E-1
3.761365377E0,-1.114699990E-2,1.769999944E-4,1.935600042E-1
3.775371733E0,-5.269999965E-4,-6.087800115E-2,1.864310056E-1
3.789377314E0,2.082600072E-2,-9.265299886E-2,1.984509975E-1
3.803382180E0,4.285600036E-2,-7.617799938E-2,2.381760031E-1
3.817387843E0,4.285600036E-2,-7.617799938E-2,2.381760031E-1
3.831394194E0,2.640499920E-2,-5.108600110E-2,2.400729954E-1
3.845399781E0,3.186500072E-2,-2.269900031E-2,2.488510013E-1
3.859404714E0,3.186500072E-2,-2.269900031E-2,2.488510013E-1
3.873410386E0,1.996099949E-2,-2.029200085E-2,2.366759926E-1
3.887416747E0,1.522499975E-2,-2.726200037E-2,2.262240052E-1
3.901422410E0,1.522499975E-2,-2.726200037E-2,2.262240052E-1
3.915427207E0,7.368999999E-3,-5.283899978E-2,2.843660116E-1
3.929432809E0,1.282999991E-3,-5.592900142E-2,1.696600020E-1
3.943439145E0,5.051999912E-2,-7.774700224E-2,1.801999956E-1
3.957444765E0,5.051999912E-2,-7.774700224E-2,1.801999956E-1
3.971449606E0,3.850600123E-2,-4.053299874E-2,2.574310005E-1
3.985455266E0,2.597899921E-2,-3.378799930E-2,2.153960019E-1
3.999461683E0,2.597899921E-2,-3.378799930E-2,2.153960019E-1
4.013467280E0,4.576500133E-2,-3.161900118E-2,2.160219997E-1
4.027472131E0,3.466299921E-2,-5.031299964E-2,2.451809943E-1
4.041477669E0,3.466299921E-2,-5.031299964E-2,2.451809943E-1
4.055484035E0,3.325299919E-2,-2.165500075E-2,2.228399962E-1
4.069489674E0,3.678999841E-2,-4.439700022E-2,1.964260042E-1
4.083494505E0,1.712399907E-2,-3.607400134E-2,1.907570064E-1
4.097500150E0,1.712399907E-2,-3.607400134E-2,1.907570064E-1
4.111506529E0,1.449900027E-2,-4.409199953E-2,2.041410059E-1
4.125512107E0,2.003600076E-2,-4.155499861E-2,2.076260000E-1
4.139517059E0,2.003600076E-2,-4.155499861E-2,2.076260000E-1
4.153522742E0,-2.149000065E-3,-4.789499938E-2,2.030099928E-1
4.167529117E0,1.696700044E-2,-3.529899940E-2,2.152570039E-1
4.181534743E0,1.696700044E-2,-3.529899940E-2,2.152570039E-1
4.195539555E0,2.042800002E-2,-3.886099905E-2,2.396810055E-1
4.209545180E0,7.166999858E-3,-5.031400174E-2,2.154140025E-1
4.223551574E0,2.066100016E-2,-4.049300030E-2,2.011470050E-1
4.237557208E0,2.066100016E-2,-4.049300030E-2,2.011470050E-1
4.251562103E0,-3.505999921E-3,-3.424900025E-2,2.297430038E-1
4.265567719E0,1.449999958E-2,-2.883500047E-2,2.446489930E-1
4.279574069E0,1.449999958E-2,-2.883500047E-2,2.446489930E-1
4.293579709E0,7.449999917E-3,-3.309800103E-2,2.519870102E-1
4.307584536E0,2.549600042E-2,-3.729600087E-2,2.488929927E-1
4.321590165E0,2.549600042E-2,-3.729600087E-2,2.488929927E-1
4.335596516E0,3.898999887E-3,-2.942599915E-2,2.235309929E-1
4.349602128E0,2.672499977E-2,-2.429299988E-2,2.574769855E-1
4.363606978E0,5.109999795E-3,-1.245000027E-2,1.288769990E-1
4.377612555E0,5.109999795E-3,-1.245000027E-2,1.288769990E-1
4.391618945E0,4.021099955E-2,-3.746100143E-2,2.237920016E-1
4.405624579E0,6.417100132E-2,-7.590600103E-2,2.883560061E-1
4.419629535E0,6.417100132E-2,-7.590600103E-2,2.883560061E-1
4.433635175E0,2.093899995E-2,-4.961999878E-2,2.175280005E-1
4.447641463E0,6.176900119E-2,-5.437200144E-2,1.131599993E-1
4.461647069E0,6.176900119E-2,-5.437200144E-2,1.131599993E-1
4.475651997E0,5.592399836E-2,-3.542700037E-2,3.038049936E-1
4.489657593E0,2.772399969E-2,1.170300040E-2,3.197860122E-1
4.503663968E0,-1.487400010E-2,3.665700182E-2,2.226060033E-1
4.517669627E0,-1.487400010E-2,3.665700182E-2,2.226060033E-1
4.531674473E0,-8.772999980E-3,2.881699987E-2,1.973139942E-1
4.545680127E0,-1.440699957E-2,-1.751900092E-2,2.199140042E-1
4.559686477E0,-1.440699957E-2,-1.751900092E-2,2.199140042E-1
4.573692044E0,1.063999999E-2,-4.128700122E-2,2.089930028E-1
4.587696876E0,8.445999585E-3,-5.002000183E-2,2.082750052E-1
4.601702545E0,8.445999585E-3,-5.002000183E-2,2.082750052E-1
4.615708876E0,1.662199944E-2,-1.837999932E-2,2.344170064E-1
4.629714458E0,1.572999917E-2,-1.275399979E-2,2.335650027E-1
4.643719352E0,2.193999942E-3,-3.649000078E-3,2.206840068E-1
4.657724928E0,2.193999942E-3,-3.649000078E-3,2.206840068E-1
4.671731323E0,-1.418200042E-2,-3.307799995E-2,2.117000073E-1
4.685736967E0,-9.456999600E-3,-2.188700065E-2,2.853929996E-1
4.699741910E0,-9.456999600E-3,-2.188700065E-2,2.853929996E-1
4.713747554E0,-1.416399982E-2,-3.270899877E-2,2.408709973E-1
4.727753867E0,2.589000016E-2,-3.777499869E-2,1.623210013E-1
4.741759472E0,2.589000016E-2,-3.777499869E-2,1.623210013E-1
4.755764289E0,3.049900010E-2,-2.375599928E-2,2.475900054E-1
4.769769935E0,3.609300032E-2,-1.068999991E-3,2.284940034E-1
4.783776381E0,3.566199914E-2,-3.930999897E-3,2.333869934E-1
4.797782012E0,3.566199914E-2,-3.930999897E-3,2.333869934E-1
4.811786848E0,2.386900038E-2,-8.105999790E-3,2.451709956E-1
4.825792482E0,1.438300032E-2,1.120099984E-2,2.754290104E-1
4.839798882E0,1.438300032E-2,1.120099984E-2,2.754290104E-1
4.853804439E0,1.134300046E-2,-1.761200093E-2,2.196300030E-1
4.867809291E0,4.668000154E-3,-1.884100027E-2,2.278970033E-1
4.881814930E0,4.668000154E-3,-1.884100027E-2,2.278970033E-1
4.895821315E0,1.694599912E-2,-3.874300048E-2,2.423910052E-1
4.909826935E0,2.827000106E-3,-2.595699951E-2,2.202000022E-1
4.923831790E0,2.175400034E-2,-3.550000116E-2,2.231159955E-1
4.937837396E0,2.175400034E-2,-3.550000116E-2,2.231159955E-1
4.951843795E0,9.693000466E-3,-1.553499978E-2,2.029509991E-1
4.965849425E0,9.878999554E-3,-3.485000134E-2,2.173860073E-1
4.979854390E0,9.878999554E-3,-3.485000134E-2,2.173860073E-1
4.993859957E0,1.745299995E-2,-1.879299991E-2,2.138500065E-1
5.007866366E0,2.322000079E-2,-4.052999988E-2,2.183319926E-1
5.021871967E0,2.322000079E-2,-4.052999988E-2,2.183319926E-1
5.035876843E0,2.451200038E-2,-1.960900053E-2,1.918759942E-1
5.049882467E0,1.995800063E-2,-1.477599982E-2,1.968100071E-1
5.063888891E0,9.940999560E-3,-2.845500037E-2,2.399509996E-1
5.077894525E0,9.940999560E-3,-2.845500037E-2,2.399509996E-1
5.091899371E0,3.922000062E-3,-3.304899856E-2,2.676149905E-1
5.105904967E0,1.715900004E-2,-2.799299918E-2,2.380419970E-1
5.119911371E0,1.715900004E-2,-2.799299918E-2,2.380419970E-1
5.133917006E0,-1.238999981E-2,-1.351100020E-2,2.338549942E-1
5.147921847E0,6.604999769E-3,-7.087000180E-3,2.552739978E-1
5.161927500E0,6.604999769E-3,-7.087000180E-3,2.552739978E-1
5.175933876E0,-1.395700034E-2,-1.177099999E-2,1.714629978E-1
5.189939443E0,3.185699880E-2,-2.481699921E-2,2.220329940E-1
5.203944290E0,6.337399781E-2,-3.580100089E-2,2.618040144E-1
5.217949996E0,6.337399781E-2,-3.580100089E-2,2.618040144E-1
5.231956290E0,3.376099840E-2,-5.307599902E-2,1.872269958E-1
5.245961866E0,5.478600040E-2,-5.913800001E-2,1.473660022E-1
5.259966731E0,5.478600040E-2,-5.913800001E-2,1.473660022E-1
5.273972347E0,3.906200081E-2,-5.244800076E-2,3.057059944E-1
5.287978698E0,1.334199961E-2,-1.760699973E-2,2.839320004E-1
5.301984290E0,1.334199961E-2,-1.760699973E-2,2.839320004E-1
5.315989126E0,-2.089400031E-2,2.888100035E-2,1.999720037E-1
5.329994683E0,-1.821400039E-2,7.418999914E-3,2.169989944E-1
5.344001035E0,-1.402099989E-2,-3.617800027E-2,2.051230073E-1
5.358006654E0,-1.402099989E-2,-3.617800027E-2,2.051230073E-1
5.372011477E0,7.149999728E-4,-5.158599839E-2,1.933179945E-1
5.386017102E0,9.046999738E-3,-5.899300054E-2,2.344619930E-1
5.400023521E0,9.046999738E-3,-5.899300054E-2,2.344619930E-1
5.414029156E0,1.216700021E-2,-4.004099965E-2,2.583540082E-1
5.428034006E0,2.300100029E-2,-1.761900075E-2,2.360229939E-1
5.442039598E0,2.300100029E-2,-1.761900075E-2,2.360229939E-1
5.456045997E0,-6.099999882E-5,-1.102100033E-2,2.265480012E-1
5.470051685E0,4.579999950E-4,-2.477799915E-2,2.262150049E-1
5.484056579E0,7.400000002E-3,-2.395899966E-2,2.398650050E-1
5.498062112E0,7.400000002E-3,-2.395899966E-2,2.398650050E-1
5.512068487E0,-6.329999771E-3,-1.957600005E-2,2.200890034E-1
5.526074189E0,2.664799988E-2,-3.638099879E-2,1.759610027E-1
5.540079097E0,2.664799988E-2,-3.638099879E-2,1.759610027E-1
5.554084761E0,2.058999985E-2,-2.195500024E-2,2.203740031E-1
5.568091142E0,4.077700153E-2,-9.743999690E-3,2.180690020E-1
5.582096775E0,4.077700153E-2,-9.743999690E-3,2.180690020E-1
5.596101598E0,4.022699967E-2,-2.113400027E-2,2.297309935E-1
5.610107204E0,5.538000166E-2,2.288999967E-3,2.623899877E-1
5.624113588E0,3.351499885E-2,-2.907000016E-3,2.499510050E-1
5.638119199E0,3.351499885E-2,-2.907000016E-3,2.499510050E-1
5.652124097E0,9.212000296E-3,-4.155000206E-3,2.284560055E-1
5.666129698E0,-2.683999948E-3,-1.793099940E-2,2.281630039E-1
5.680136050E0,-2.683999948E-3,-1.793099940E-2,2.281630039E-1
5.694141670E0,3.318699822E-2,-3.608800098E-2,2.259880006E-1
5.708146540E0,-3.167999908E-3,-5.259900168E-2,2.019380033E-1
5.722152208E0,-3.167999908E-3,-5.259900168E-2,2.019380033E-1
5.736158531E0,5.702999886E-3,-5.076399818E-2,2.089229971E-1
5.750164156E0,2.266200073E-2,-4.106099904E-2,2.108789980E-1
5.764169060E0,5.605999846E-3,-4.170700163E-2,2.037809938E-1
5.778174655E0,5.605999846E-3,-4.170700163E-2,2.037809938E-1
5.792181031E0,9.158999659E-3,-3.011699952E-2,2.376659960E-1
5.806186666E0,1.226999983E-2,-3.913300112E-2,2.227270007E-1
5.820191526E0,1.226999983E-2,-3.913300112E-2,2.227270007E-1
5.834197135E0,2.016399987E-2,-1.218200009E-2,1.991209984E-1
5.848203501E0,5.530000199E-3,3.202999942E-3,2.190410048E-1
5.862209092E0,5.530000199E-3,3.202999942E-3,2.190410048E-1
5.876213967E0,3.599999938E-3,1.309999963E-3,2.801930010E-1
5.890219597E0,3.476899862E-2,-1.225700043E-2,2.545720041E-1
5.904226005E0,-3.513999982E-3,7.352000102E-3,2.600060105E-1
5.918231592E0,-3.513999982E-3,7.352000102E-3,2.600060105E-1
5.932236390E0,-2.203000011E-3,1.474499982E-2,2.254199982E-1
5.946241977E0,1.049999992E-4,-1.256700046E-2,1.856340021E-1
5.960248414E0,1.049999992E-4,-1.256700046E-2,1.856340021E-1
5.974254040E0,1.562300045E-2,-1.223200001E-2,1.928000003E-1
5.988258929E0,5.087700114E-2,-4.471899942E-2,1.988860071E-1
6.002264505E0,5.087700114E-2,-4.471899942E-2,1.988860071E-1
6.016270890E0,7.472199947E-2,-8.420400321E-2,2.640500069E-1
6.030276520E0,5.621499941E-2,-7.172700018E-2,1.221529990E-1
6.044281428E0,4.838899896E-2,-6.503099948E-2,2.273370028E-1
6.058287068E0,4.838899896E-2,-6.503099948E-2,2.273370028E-1
6.072293448E0,2.558000013E-2,-3.235799819E-2,3.328830004E-1
6.086299064E0,-2.483000048E-2,1.203399990E-2,2.429829985E-1
6.100303924E0,-2.483000048E-2,1.203399990E-2,2.429829985E-1
6.114309520E0,-3.190600127E-2,1.982899942E-2,2.162649930E-1
6.128315881E0,-3.892299905E-2,-2.074399963E-2,1.973180026E-1
6.142321505E0,-1.079799980E-2,-3.679199889E-2,2.032890022E-1
6.156326347E0,-1.079799980E-2,-3.679199889E-2,2.032890022E-1
6.170331967E0,1.749400049E-2,-5.535300076E-2,2.253510058E-1
6.184338352E0,4.114500061E-2,-5.712600052E-2,2.577120066E-1
6.198343982E0,4.114500061E-2,-5.712600052E-2,2.577120066E-1
6.212348794E0,2.023299970E-2,-4.486700147E-2,2.369509935E-1
6.226354424E0,3.304199874E-2,-3.141200170E-2,2.484419942E-1
6.240360823E0,3.304199874E-2,-3.141200170E-2,2.484419942E-1
6.254366459E0,3.304199874E-2,-3.141200170E-2,2.484419942E-1
6.268371377E0,2.949699946E-2,-3.809000179E-2,2.271630019E-1
6.282376987E0,2.949699946E-2,-3.809000179E-2,2.271630019E-1
6.296383305E0,-3.796000034E-3,-4.462699965E-2,2.422100008E-1
6.310388944E0,1.610600017E-2,-5.235699937E-2,1.637589931E-1
6.324393771E0,3.150700033E-2,-5.798599869E-2,2.006639987E-1
6.338399396E0,3.150700033E-2,-5.798599869E-2,2.006639987E-1
6.352405791E0,4.411200061E-2,-3.844799846E-2,2.190359980E-1
6.366411401E0,1.355899964E-2,-1.950599998E-2,2.228650004E-1
6.380416232E0,1.355899964E-2,-1.950599998E-2,2.228650004E-1
6.394421810E0,2.962299995E-2,-1.296299975E-2,2.431930006E-1
6.408428203E0,3.588499874E-2,-2.286300063E-2,2.662320137E-1
6.422433843E0,2.018499933E-2,-2.340099961E-2,2.501470149E-1
6.436438728E0,2.018499933E-2,-2.340099961E-2,2.501470149E-1
6.450444276E0,1.545799989E-2,-3.737200052E-2,2.255620062E-1
6.464450645E0,2.899600007E-2,-5.527200177E-2,2.457789928E-1
6.478456255E0,2.899600007E-2,-5.527200177E-2,2.457789928E-1
6.492461097E0,4.676000215E-3,-5.437099934E-2,2.329500020E-1
6.506466693E0,-2.688999986E-3,-5.563800037E-2,2.104849964E-1
6.520473097E0,-2.688999986E-3,-5.563800037E-2,2.104849964E-1
6.534478698E0,6.668000016E-3,-5.407600105E-2,1.968210042E-1
6.548483635E0,-3.891000059E-3,-3.866000101E-2,1.911270022E-1
6.562489219E0,1.016299985E-2,-3.282999992E-2,1.922679991E-1
6.576495621E0,1.016299985E-2,-3.282999992E-2,1.922679991E-1
6.590501214E0,2.620200068E-2,-4.149400070E-2,2.056249976E-1
6.604506074E0,1.856100000E-2,-4.332299903E-2,2.238160074E-1
6.618511655E0,1.856100000E-2,-4.332299903E-2,2.238160074E-1
6.632517988E0,3.503999906E-3,-3.977499902E-2,2.340089977E-1
6.646523564E0,-2.280999906E-3,-4.295099899E-2,2.468390018E-1
6.660528430E0,-2.280999906E-3,-4.295099899E-2,2.468390018E-1
6.674534093E0,7.650000043E-4,-3.485000134E-2,2.590549886E-1
6.688540502E0,1.503599994E-2,-3.623099998E-2,2.551549971E-1
6.702546103E0,2.440999961E-3,-4.185999930E-2,2.474800050E-1
6.716550930E0,2.440999961E-3,-4.185999930E-2,2.474800050E-1
6.730556536E0,1.185700018E-2,-4.206199944E-2,1.836650074E-1
6.744562944E0,1.417700015E-2,-2.340699919E-2,1.429940015E-1
6.758568546E0,1.417700015E-2,-2.340699919E-2,1.429940015E-1
6.772573497E0,5.067000166E-2,-6.861799955E-2,1.677349955E-1
6.786579117E0,4.378300160E-2,-7.617399842E-2,2.762239873E-1
6.800585430E0,4.378300160E-2,-7.617399842E-2,2.762239873E-1
6.814591127E0,4.163699970E-2,-3.039699979E-2,9.834200144E-2
6.828595950E0,4.915000126E-2,-3.802499920E-2,1.559990048E-1
6.842601579E0,4.253000021E-2,-9.647999890E-3,3.208479881E-1
6.856607969E0,4.253000021E-2,-9.647999890E-3,3.208479881E-1
6.870613560E0,-2.974100038E-2,8.747000247E-3,2.355860025E-1
6.884618444E0,-3.115599975E-2,1.896700077E-2,1.881570071E-1
6.898623987E0,-3.115599975E-2,1.896700077E-2,1.881570071E-1
6.912630410E0,-2.026000060E-2,-3.531900048E-2,2.012580037E-1
6.926636025E0,-1.372199971E-2,-6.205900013E-2,2.172510028E-1
6.940640886E0,-1.372199971E-2,-6.205900013E-2,2.172510028E-1
6.954646496E0,1.809900068E-2,-6.748899817E-2,2.217759937E-1
6.968652900E0,1.872999966E-2,-5.096299946E-2,2.293269932E-1
6.982658515E0,2.595699951E-2,-2.023299970E-2,2.429679930E-1
6.996663343E0,2.595699951E-2,-2.023299970E-2,2.429679930E-1
7.010669049E0,-1.119900029E-2,-3.537900001E-2,2.312059999E-1
7.024675348E0,-2.395199984E-2,-3.391199932E-2,2.219209969E-1
7.038680977E0,-2.395199984E-2,-3.391199932E-2,2.219209969E-1
7.052685919E0,6.974000018E-3,-3.708200157E-2,2.094739974E-1
7.066691545E0,-1.136600040E-2,-2.566600032E-2,2.520680130E-1
7.080697953E0,-1.136600040E-2,-2.566600032E-2,2.520680130E-1
7.094703565E0,1.281100046E-2,-3.649900109E-2,1.480740011E-1
7.108708406E0,3.596999869E-2,-3.513599932E-2,1.958689988E-1
7.122713987E0,4.279499874E-2,-2.358499914E-2,2.615419924E-1
7.136720387E0,4.279499874E-2,-2.358499914E-2,2.615419924E-1
7.150726002E0,4.218399897E-2,-5.089999759E-4,2.123509943E-1
7.164730838E0,2.966300026E-2,-1.647200063E-2,2.381539941E-1
7.178736454E0,2.966300026E-2,-1.647200063E-2,2.381539941E-1
7.192742829E0,1.979300007E-2,-1.115499996E-2,2.766880095E-1
7.206748449E0,1.816999912E-2,-2.173599973E-2,2.156099975E-1
7.220753305E0,1.816999912E-2,-2.173599973E-2,2.156099975E-1
7.234758940E0,7.930000313E-3,-3.115100041E-2,2.159799933E-1
7.248765367E0,8.236000314E-3,-4.080000147E-2,2.386180013E-1
7.262770983E0,1.142999972E-3,-1.802100055E-2,2.305459976E-1
7.276775911E0,1.142999972E-3,-1.802100055E-2,2.305459976E-1
7.290781535E0,1.053999993E-3,-3.624200076E-2,2.024769932E-1
7.304787863E0,8.093000390E-3,-2.914300002E-2,2.186280042E-1
7.318793478E0,8.093000390E-3,-2.914300002E-2,2.186280042E-1
7.332798439E0,9.814999998E-3,-3.174899891E-2,2.128610015E-1
7.346804070E0,8.187999949E-3,-4.318799824E-2,2.287240028E-1
7.360810454E0,8.187999949E-3,-4.318799824E-2,2.287240028E-1
7.374816060E0,2.308399975E-2,-4.188799858E-2,2.136719972E-1
7.388820920E0,1.634399965E-2,-2.715599909E-2,2.177529931E-1
7.402826525E0,8.480000310E-3,-8.371000178E-3,2.599439919E-1
7.416832901E0,8.480000310E-3,-8.371000178E-3,2.599439919E-1
7.430838517E0,1.254300028E-2,-1.121100038E-2,2.703669965E-1
7.444843348E0,2.489800006E-2,-1.178899966E-2,2.657290101E-1
7.458848959E0,2.489800006E-2,-1.178899966E-2,2.657290101E-1
7.472855305E0,8.342999965E-3,1.420800015E-2,2.123550028E-1
7.486860930E0,-3.999999990E-6,-3.358999966E-3,2.325499952E-1
7.500865747E0,-3.999999990E-6,-3.358999966E-3,2.325499952E-1
7.514871348E0,-1.081799995E-2,1.473299973E-2,1.564709991E-1
7.528877752E0,1.933000050E-2,-1.695900038E-2,2.155860066E-1
7.542883319E0,5.121399835E-2,-5.936700106E-2,2.477719933E-1
7.556888233E0,5.121399835E-2,-5.936700106E-2,2.477719933E-1
7.570893862E0,5.127999932E-3,-7.799900323E-2,1.654320061E-1
7.584900180E0,4.681000113E-2,-5.819199979E-2,1.410849988E-1
7.598905877E0,4.681000113E-2,-5.819199979E-2,1.410849988E-1
7.612910748E0,3.746600077E-2,-3.948000073E-2,3.140679896E-1
7.626916213E0,1.904699951E-2,4.222999793E-3,2.899270058E-1
7.640922622E0,1.904699951E-2,4.222999793E-3,2.899270058E-1
7.654928271E0,-1.039099973E-2,2.259000018E-2,2.055449933E-1
7.668933112E0,-2.491299994E-2,-3.779999912E-3,2.020229995E-1
7.682938805E0,-1.626699977E-2,-3.482799977E-2,2.185399979E-1
7.696945179E0,-1.626699977E-2,-3.482799977E-2,2.185399979E-1
7.710950819E0,8.948000148E-3,-3.628800064E-2,1.941920072E-1
7.724955685E0,1.486799959E-2,-3.915499896E-2,2.039690018E-1
7.738961280E0,1.486799959E-2,-3.915499896E-2,2.039690018E-1
7.752967656E0,8.015999570E-3,-1.013499964E-2,2.295430005E-1
7.766973291E0,5.342999939E-3,-3.415299952E-2,2.406049967E-1
7.780978103E0,5.342999939E-3,-3.415299952E-2,2.406049967E-1
7.794983790E0,-1.827999949E-3,-1.501400024E-2,2.327390015E-1
7.808990098E0,-8.274000138E-3,-2.766899951E-2,2.199340016E-1
7.822995762E0,3.877999960E-3,-2.915400080E-2,2.601940036E-1
7.837000776E0,3.877999960E-3,-2.915400080E-2,2.601940036E-1
7.851006382E0,-1.875399984E-2,-3.761199862E-2,2.007090002E-1
7.865012776E0,1.893500052E-2,-4.338100180E-2,1.874590069E-1
7.879018358E0,1.893500052E-2,-4.338100180E-2,1.874590069E-1
7.893023218E0,2.278099954E-2,-3.518199921E-2,2.016890049E-1
7.907028761E0,4.478799924E-2,-2.098700032E-2,2.102410048E-1
7.921035151E0,4.478799924E-2,-2.098700032E-2,2.102410048E-1
7.935040780E0,2.771300077E-2,-7.814999670E-3,2.287970036E-1
7.949045622E0,2.714899927E-2,-7.570000016E-4,2.553780079E-1
7.963051233E0,3.357800096E-2,-6.316999905E-3,2.428620011E-1
7.977057589E0,3.357800096E-2,-6.316999905E-3,2.428620011E-1
7.991063232E0,9.774999693E-3,-2.040600032E-2,2.251989990E-1
8.005068074E0,8.297000080E-3,-2.925099991E-2,2.268610001E-1
8.019073670E0,8.297000080E-3,-2.925099991E-2,2.268610001E-1
8.033080040E0,2.217699960E-2,-4.049799964E-2,2.196750045E-1
8.047085680E0,1.026600040E-2,-3.465599939E-2,2.144850045E-1
8.061090622E0,1.026600040E-2,-3.465599939E-2,2.144850045E-1
8.075096223E0,-8.887000382E-3,-4.817499965E-2,2.172590047E-1
8.089102608E0,5.088999867E-3,-2.739199996E-2,2.170690000E-1
8.103108204E0,1.352899987E-2,-3.075600043E-2,2.168159932E-1
8.117113094E0,1.352899987E-2,-3.075600043E-2,2.168159932E-1
8.131118718E0,-4.046999849E-3,-2.789499983E-2,1.975129992E-1
8.145125103E0,5.905999802E-3,-2.548900060E-2,1.943359971E-1
8.159130718E0,5.905999802E-3,-2.548900060E-2,1.943359971E-1
8.173135583E0,-8.454999886E-3,-1.182600018E-2,2.253150046E-1
8.187141204E0,-4.329999909E-3,-3.071999922E-2,2.400940061E-1
8.201147593E0,-4.329999909E-3,-3.071999922E-2,2.400940061E-1
8.215153247E0,1.210399996E-2,-2.656999975E-2,2.671400011E-1
8.229158121E0,-8.104000241E-3,1.901599951E-2,2.333829999E-1
8.243163707E0,-5.890000146E-3,8.967000060E-3,2.162020057E-1
8.257170069E0,-5.890000146E-3,8.967000060E-3,2.162020057E-1
8.271175665E0,8.981999941E-3,5.131000187E-3,2.030359954E-1
8.285180613E0,8.507999592E-3,1.896999963E-2,1.994609982E-1
8.299186228E0,8.507999592E-3,1.896999963E-2,1.994609982E-1
8.313192608E0,5.062999949E-2,-2.171299979E-2,2.061460018E-1
8.327198228E0,6.900200248E-2,-5.586399883E-2,2.527639866E-1
8.341203092E0,6.900200248E-2,-5.586399883E-2,2.527639866E-1
8.355208675E0,4.866800085E-2,-4.748800024E-2,1.322750002E-1
8.369215069E0,6.282799691E-2,-4.396000132E-2,2.417799979E-1
8.383220660E0,2.449199930E-2,-2.924799919E-2,3.205580115E-1
8.397225496E0,2.449199930E-2,-2.924799919E-2,3.205580115E-1
8.411231111E0,-4.586999770E-3,2.944600023E-2,2.405710071E-1
8.425237491E0,-3.457700089E-2,3.480000014E-4,2.091079950E-1
8.439243073E0,-3.457700089E-2,3.480000014E-4,2.091079950E-1
8.453247843E0,-3.196299821E-2,-1.579900086E-2,2.148379982E-1
8.467253458E0,-8.789000101E-3,-4.716899991E-2,2.167519927E-1
8.481259857E0,-8.789000101E-3,-4.716899991E-2,2.167519927E-1
8.495265458E0,3.281000070E-3,-5.069300160E-2,2.291740030E-1
8.509270395E0,2.921400033E-2,-4.882400110E-2,2.328480035E-1
8.523275997E0,1.922300085E-2,-3.522799909E-2,2.323109955E-1
8.537282390E0,1.922300085E-2,-3.522799909E-2,2.323109955E-1
8.551287978E0,2.748600021E-2,-2.899000049E-2,2.439589947E-1
8.565292790E0,7.255999837E-3,-1.436000038E-2,2.352100015E-1
8.579298390E0,7.255999837E-3,-1.436000038E-2,2.352100015E-1
8.593304795E0,2.459299937E-2,-3.378000110E-2,2.172349989E-1
8.607310420E0,1.023800019E-2,-2.903000079E-2,2.509199977E-1
8.621315266E0,1.023800019E-2,-2.903000079E-2,2.509199977E-1
8.635320868E0,1.119500026E-2,-4.486399889E-2,2.016559988E-1
8.649327248E0,2.774599940E-2,-6.106999889E-2,2.248039991E-1
8.663332892E0,3.987900168E-2,-5.045500025E-2,2.403109968E-1
8.677337824E0,3.987900168E-2,-5.045500025E-2,2.403109968E-1
8.691343440E0,3.543100134E-2,-1.959099993E-2,2.232740074E-1
8.705349810E0,2.711099945E-2,-1.391400024E-2,2.338480055E-1
8.719355406E0,2.711099945E-2,-1.391400024E-2,2.338480055E-1
8.733360334E0,3.859899938E-2,-1.484700013E-2,2.453369945E-1
8.747365930E0,1.687600091E-2,-2.960200049E-2,2.367029935E-1
8.761372315E0,1.687600091E-2,-2.960200049E-2,2.367029935E-1
8.775377949E0,-1.389999961E-4,-2.077200077E-2,2.193010002E-1
8.789382805E0,2.905200049E-2,-4.641100019E-2,2.136220038E-1
8.803388410E0,5.220000166E-3,-4.202400148E-2,2.289559990E-1
8.817394794E0,5.220000166E-3,-4.202400148E-2,2.289559990E-1
8.831400429E0,-4.507000092E-3,-4.643800110E-2,1.946910024E-1
8.845405275E0,3.532999894E-3,-3.339400142E-2,2.081699967E-1
8.859410872E0,3.532999894E-3,-3.339400142E-2,2.081699967E-1
8.873417294E0,6.376000121E-3,-3.515399992E-2,2.056249976E-1
8.887422896E0,2.182699926E-2,-4.032099992E-2,1.951449960E-1
8.901427747E0,2.182699926E-2,-4.032099992E-2,1.951449960E-1
8.915433424E0,2.227699943E-2,-2.575900033E-2,2.184589952E-1
8.929439747E0,4.511999898E-3,-3.290399909E-2,2.444680035E-1
8.943445357E0,-4.987000022E-3,-3.237900138E-2,2.530229986E-1
8.957450313E0,-4.987000022E-3,-3.237900138E-2,2.530229986E-1
8.971455924E0,2.319099940E-2,-3.798500076E-2,2.381380051E-1
8.985462323E0,-4.689000081E-3,-2.056300081E-2,2.600769997E-1
8.999467963E0,-4.689000081E-3,-2.056300081E-2,2.600769997E-1
9.013472853E0,4.976000171E-3,-7.404999807E-3,2.592850029E-1
9.027478454E0,-2.038999926E-3,-4.157000035E-2,2.605789900E-1
9.041484814E0,-2.038999926E-3,-4.157000035E-2,2.605789900E-1
9.055490416E0,7.213999983E-3,-9.960999712E-3,1.528200060E-1
9.069495296E0,4.266199842E-2,-1.997300051E-2,2.073320001E-1
9.083500863E0,6.939099729E-2,-7.436700165E-2,3.109970093E-1
9.097507209E0,6.939099729E-2,-7.436700165E-2,3.109970093E-1
9.111512824E0,4.594499990E-2,-3.311200067E-2,1.430059969E-1
9.125517757E0,8.443100005E-2,-2.347400039E-2,1.497019976E-1
9.139523353E0,8.443100005E-2,-2.347400039E-2,1.497019976E-1
9.153529694E0,7.443200052E-2,5.621000193E-3,3.169409931E-1
9.167535348E0,1.093579978E-1,1.450099982E-2,3.122150004E-1
9.181540156E0,1.093579978E-1,1.450099982E-2,3.122150004E-1
9.195545756E0,1.059919968E-1,1.698699966E-2,1.964229941E-1
9.209552132E0,6.732899696E-2,1.780000021E-4,1.772750020E-1
9.223557699E0,4.877499864E-2,-1.066000015E-2,2.157489955E-1
9.237562522E0,4.877499864E-2,-1.066000015E-2,2.157489955E-1
9.251568151E0,4.908499867E-2,-3.508500010E-2,2.431399971E-1
9.265574570E0,2.830100060E-2,-4.374599829E-2,2.426480055E-1
9.279580233E0,2.830100060E-2,-4.374599829E-2,2.426480055E-1
9.293585093E0,-3.490000032E-3,-4.587399960E-2,2.357870042E-1
9.307590714E0,-1.183199976E-2,-4.591200128E-2,2.108419985E-1
9.321597093E0,-1.183199976E-2,-4.591200128E-2,2.108419985E-1
9.335602796E0,-6.168000028E-2,-4.627700150E-2,2.167090029E-1
9.349607675E0,-6.251800060E-2,-8.503200114E-2,2.690449953E-1
9.363613233E0,-5.873699859E-2,-4.129499942E-2,3.186210096E-1
9.377619608E0,-5.873699859E-2,-4.129499942E-2,3.186210096E-1
9.391625281E0,-5.361500010E-2,-1.865199953E-2,1.211149991E-1
9.405630123E0,-4.910999909E-2,-3.658400103E-2,1.959259957E-1
9.419635723E0,-4.910999909E-2,-3.658400103E-2,1.959259957E-1
9.433642147E0,-5.833499879E-2,-7.286000066E-3,2.722260058E-1
9.447647752E0,-4.602399841E-2,-1.255100034E-2,2.723259926E-1
9.461652608E0,-4.602399841E-2,-1.255100034E-2,2.723259926E-1
9.475658204E0,-3.198700026E-2,-3.189399838E-2,2.493260056E-1
9.489664579E0,-3.336500004E-2,-2.470399998E-2,2.584190071E-1
9.503670219E0,-4.385000095E-2,-4.380999878E-2,2.377199978E-1
9.517675127E0,-4.385000095E-2,-4.380999878E-2,2.377199978E-1
9.531680757E0,-2.454099990E-2,-5.170699954E-2,2.362650037E-1
9.545687146E0,1.071900036E-2,-5.038899928E-2,2.471929938E-1
9.559692733E0,1.071900036E-2,-5.038899928E-2,2.471929938E-1
9.573697560E0,6.440999918E-3,-5.034000054E-2,2.422759980E-1
9.587703151E0,2.439500019E-2,-6.713999901E-3,2.177390009E-1
9.601709536E0,2.439500019E-2,-6.713999901E-3,2.177390009E-1
9.615715151E0,8.255299926E-2,-1.042500045E-2,2.298049927E-1
9.629719997E0,6.755100191E-2,-2.573199943E-2,2.579059899E-1
9.643725603E0,6.840000302E-2,-3.800000064E-3,2.424560040E-1
9.657731967E0,6.840000302E-2,-3.800000064E-3,2.424560040E-1
9.671737574E0,4.949200153E-2,-2.060800046E-2,2.189089954E-1
9.685742472E0,4.071899876E-2,-5.363700166E-2,2.748720050E-1
9.699748087E0,4.071899876E-2,-5.363700166E-2,2.748720050E-1
9.713754444E0,2.857900038E-2,-7.156699896E-2,1.969379932E-1
9.727760073E0,3.070499934E-2,-1.443600003E-2,2.009530067E-1
9.741764919E0,3.070499934E-2,-1.443600003E-2,2.009530067E-1
9.755770530E0,2.715500072E-2,1.014349982E-1,3.025780022E-1
9.769776906E0,2.044400014E-2,1.054230034E-1,2.766749859E-1
9.783782516E0,2.695400082E-2,-3.030100092E-2,1.407040060E-1
9.797787439E0,2.695400082E-2,-3.030100092E-2,1.407040060E-1
9.811793092E0,3.392700106E-2,-1.427650005E-1,2.246920019E-1
9.825799482E0,8.701899648E-2,-1.748539954E-1,1.537169963E-1
9.839805127E0,8.701899648E-2,-1.748539954E-1,1.537169963E-1
9.853810011E0,1.235340014E-1,-1.089389995E-1,2.239010036E-1
9.867815646E0,1.081740037E-1,-4.510900006E-2,1.429010034E-1
9.881822065E0,1.081740037E-1,-4.510900006E-2,1.429010034E-1
9.895827685E0,1.104779989E-1,2.953900024E-2,2.784689963E-1
9.909832521E0,6.232099980E-2,4.868000001E-2,3.092379868E-1
9.923838113E0,-2.791900001E-2,9.468999691E-3,2.343109995E-1
9.937844482E0,-2.791900001E-2,9.468999691E-3,2.343109995E-1
9.951850185E0,-6.498900056E-2,2.595200017E-2,1.960369945E-1
9.965855065E0,-9.177199751E-2,-2.796700038E-2,2.084300071E-1
9.979860712E0,-9.177199751E-2,-2.796700038E-2,2.084300071E-1
9.993867117E0,-9.708099812E-2,-5.862800032E-2,2.205480039E-1
1.000787274E1,-9.935899824E-2,-9.007199854E-2,2.836999893E-1
1.002187760E1,-9.935899824E-2,-9.007199854E-2,2.836999893E-1
1.003588318E1,-5.829299986E-2,-9.132800251E-2,3.109279871E-1
1.004988956E1,-5.056399852E-2,-6.627999991E-2,3.135829866E-1
1.006389526E1,2.474999987E-3,-5.170900002E-2,2.821030021E-1
1.007790006E1,2.474999987E-3,-5.170900002E-2,2.821030021E-1
1.009190571E1,2.533999970E-3,-1.490699966E-2,2.699350119E-1
1.010591205E1,5.780600011E-2,-3.097599931E-2,2.471490055E-1
1.011991768E1,5.780600011E-2,-3.097599931E-2,2.471490055E-1
1.013392254E1,8.375799656E-2,-3.829700127E-2,2.275760025E-1
1.014792818E1,7.556200027E-2,-1.971800067E-2,1.768590063E-1
1.016193460E1,7.556200027E-2,-1.971800067E-2,1.768590063E-1
1.017594025E1,6.732500345E-2,-1.611299999E-2,1.976779997E-1
1.018994509E1,2.371699922E-2,-3.150999919E-2,2.382059991E-1
1.020395071E1,-4.600000102E-5,-5.419999827E-3,2.370840013E-1
1.021795710E1,-4.600000102E-5,-5.419999827E-3,2.370840013E-1
1.023196274E1,-2.833599970E-2,7.084900141E-2,2.572349906E-1
1.024596759E1,-8.596699685E-2,-2.076499909E-2,2.673040032E-1
1.025997317E1,-8.596699685E-2,-2.076499909E-2,2.673040032E-1
1.027397964E1,-5.109399930E-2,-4.481400177E-2,2.385209948E-1
1.028798529E1,-2.026199922E-2,-6.956399977E-2,2.530680001E-1
1.030199013E1,-2.026199922E-2,-6.956399977E-2,2.530680001E-1
1.031599576E1,5.949399993E-2,-9.999500215E-2,2.378129959E-1
1.033000220E1,1.256999969E-1,-1.334539950E-1,2.220090032E-1
1.034400781E1,1.491560042E-1,-1.532559991E-1,2.159730047E-1
1.035801266E1,1.491560042E-1,-1.532559991E-1,2.159730047E-1
1.037201830E1,1.444520056E-1,-1.023100019E-1,2.090419978E-1
1.038602465E1,1.316780001E-1,-5.251700059E-2,1.891479939E-1
1.040003028E1,1.316780001E-1,-5.251700059E-2,1.891479939E-1
1.041403510E1,1.044330001E-1,-2.539000008E-3,2.326190025E-1
1.042804071E1,6.903299689E-2,4.717500135E-2,2.299470007E-1
1.044204709E1,6.903299689E-2,4.717500135E-2,2.299470007E-1
1.045605268E1,-3.929999948E-4,7.070499659E-2,2.506589890E-1
1.047005758E1,-4.225600138E-2,4.684599862E-2,3.039770126E-1
1.048406318E1,-5.405899882E-2,-7.137399912E-2,3.688650131E-1
1.049806955E1,-5.405899882E-2,-7.137399912E-2,3.688650131E-1
1.051207516E1,-5.306699872E-2,-9.585399926E-2,2.159730047E-1
1.052607998E1,8.803999983E-3,-1.251710057E-1,2.105509937E-1
1.054008557E1,8.803999983E-3,-1.251710057E-1,2.105509937E-1
1.055409195E1,1.094549969E-1,-8.400200307E-2,1.252239943E-1
1.056809770E1,1.540980041E-1,-3.088800050E-2,2.340250015E-1
1.058210257E1,1.540980041E-1,-3.088800050E-2,2.340250015E-1
1.059610818E1,7.371799648E-2,4.904900119E-2,2.094900012E-1
1.061011457E1,3.274200112E-2,6.991600245E-2,2.498629987E-1
1.062412022E1,-8.105999790E-3,3.671399876E-2,2.868289948E-1
1.063812512E1,-8.105999790E-3,3.671399876E-2,2.868289948E-1
1.065213074E1,-3.148400038E-2,-1.213259995E-1,2.451770008E-1
1.066613709E1,-4.059600085E-2,-1.570799947E-1,1.842769980E-1
1.068014275E1,-4.059600085E-2,-1.570799947E-1,1.842769980E-1
1.069414766E1,-5.721000023E-3,-1.254470050E-1,1.881760061E-1
1.070815327E1,3.537900001E-2,-8.727300167E-2,2.251490057E-1
1.072215962E1,3.537900001E-2,-8.727300167E-2,2.251490057E-1
1.073616534E1,2.267000079E-2,-7.106500119E-2,2.129330039E-1
1.075017019E1,-1.836200058E-2,-6.922700256E-2,2.031259984E-1
1.076417580E1,-5.669299886E-2,-6.536900252E-2,1.573179960E-1
1.077818216E1,-5.669299886E-2,-6.536900252E-2,1.573179960E-1
1.079218778E1,-3.830600157E-2,-7.371199876E-2,1.103880033E-1
1.080619269E1,-4.807600006E-2,-1.067729965E-1,1.965260059E-1
1.082019833E1,-4.807600006E-2,-1.067729965E-1,1.965260059E-1
1.083420472E1,-2.055899985E-2,-6.424099952E-2,2.016070038E-1
1.084821036E1,-4.658000078E-3,-3.940799832E-2,2.272969931E-1
1.086221521E1,-4.658000078E-3,-3.940799832E-2,2.272969931E-1
1.087622091E1,-2.863500081E-2,-3.274400160E-2,1.520999968E-1
1.089022729E1,1.589700021E-2,-2.946400084E-2,2.270539999E-1
1.090423294E1,8.290299773E-2,-2.165799960E-2,2.840720117E-1
1.091823775E1,8.290299773E-2,-2.165799960E-2,2.840720117E-1
1.093224334E1,1.046359986E-1,1.142999972E-3,2.290360034E-1
1.094624971E1,9.756500274E-2,7.369999774E-3,1.982399970E-1
1.096025540E1,9.756500274E-2,7.369999774E-3,1.982399970E-1
1.097426029E1,2.564400062E-2,-2.157399990E-2,2.438489944E-1
1.098826588E1,2.017300017E-2,-1.728999987E-2,2.253620028E-1
1.100227226E1,2.017300017E-2,-1.728999987E-2,2.253620028E-1
1.101627789E1,1.761399955E-2,-2.748299949E-2,2.233709991E-1
1.103028280E1,5.522700027E-2,-4.117299989E-2,2.484149933E-1
1.104428842E1,6.441699713E-2,-1.427500043E-2,2.437320054E-1
1.105829480E1,6.441699713E-2,-1.427500043E-2,2.437320054E-1
1.107230040E1,7.981300354E-2,1.698699966E-2,2.292490005E-1
1.108630523E1,7.146699727E-2,9.944999591E-3,2.010789961E-1
1.110031087E1,7.146699727E-2,9.944999591E-3,2.010789961E-1
1.111431722E1,-4.972999915E-3,-1.771100052E-2,2.066420019E-1
1.112832290E1,-4.183100164E-2,-4.248400033E-2,2.437099963E-1
1.114232778E1,-4.183100164E-2,-4.248400033E-2,2.437099963E-1
1.115633346E1,-8.152499795E-2,-1.083640009E-1,2.116730064E-1
1.117033982E1,-9.818899632E-2,-1.291439980E-1,1.973669976E-1
1.118434538E1,-5.553299934E-2,-1.353459954E-1,2.058800012E-1
1.119835030E1,-5.553299934E-2,-1.353459954E-1,2.058800012E-1
1.121235591E1,-1.189999966E-4,-1.339129955E-1,2.349849939E-1
1.122636230E1,4.114999902E-3,-3.282599896E-2,2.081010044E-1
1.124036791E1,4.114999902E-3,-3.282599896E-2,2.081010044E-1
1.125437279E1,1.092499960E-2,3.535399958E-2,2.166820019E-1
1.126837841E1,4.473200068E-2,4.160999786E-3,3.220689893E-1
1.128238479E1,3.427100182E-2,-3.538999939E-3,2.688170075E-1
1.129639042E1,3.427100182E-2,-3.538999939E-3,2.688170075E-1
1.131039527E1,3.991400078E-2,-2.749199979E-2,1.841640025E-1
1.132440085E1,1.168000046E-2,-1.543399971E-2,2.573550045E-1
1.133840725E1,1.168000046E-2,-1.543399971E-2,2.573550045E-1
1.135241291E1,-2.999899909E-2,1.701500081E-2,2.776919901E-1
1.136641773E1,-2.224900015E-2,1.623399928E-2,2.294079959E-1
1.138042342E1,-2.224900015E-2,1.623399928E-2,2.294079959E-1
1.139442980E1,-1.777900010E-2,9.463000111E-3,1.902520061E-1
1.140843544E1,-2.274899930E-2,-2.328000031E-3,1.816750020E-1
1.142244028E1,-1.143200044E-2,3.903999925E-3,2.457010001E-1
1.143644590E1,-1.143200044E-2,3.903999925E-3,2.457010001E-1
1.145045236E1,6.376000121E-3,-8.120000130E-4,3.149470091E-1
1.146445799E1,1.834899932E-2,-1.877499931E-2,2.786799967E-1
1.147846284E1,1.834899932E-2,-1.877499931E-2,2.786799967E-1
1.149246846E1,7.631999906E-3,-3.455400094E-2,2.357569933E-1
1.150647485E1,-1.753999968E-3,-2.610399947E-2,2.681280077E-1
1.152048058E1,-1.753999968E-3,-2.610399947E-2,2.681280077E-1
1.153448546E1,5.623000208E-3,-1.160299964E-2,3.024230003E-1
1.154849113E1,1.213600021E-2,1.267999969E-2,2.256840020E-1
1.156249748E1,4.448100179E-2,-1.495200023E-2,1.986410022E-1
1.157650315E1,4.448100179E-2,-1.495200023E-2,1.986410022E-1
1.159050800E1,5.948099867E-2,-5.969000049E-3,2.151499987E-1
1.160451364E1,7.339599729E-2,-2.891100012E-2,2.156459987E-1
1.161852005E1,7.339599729E-2,-2.891100012E-2,2.156459987E-1
1.163252578E1,7.476799935E-2,-3.835399821E-2,1.811019927E-1
1.164653063E1,6.701999903E-2,-6.411799788E-2,2.096430063E-1
1.166053623E1,6.701999903E-2,-6.411799788E-2,2.096430063E-1
1.167454260E1,6.333199888E-2,-8.137299865E-2,2.520149946E-1
1.168854821E1,3.561900184E-2,-7.079999894E-2,2.419019938E-1
1.170255317E1,3.230800107E-2,-5.509699881E-2,2.435269952E-1
1.171655879E1,3.230800107E-2,-5.509699881E-2,2.435269952E-1
1.173056518E1,7.546999957E-3,-1.726499945E-2,2.205040008E-1
1.174457082E1,-1.692900062E-2,-1.106000040E-3,2.535830140E-1
1.175857571E1,-1.692900062E-2,-1.106000040E-3,2.535830140E-1
1.177258132E1,-2.567500062E-2,4.362000152E-3,2.599529922E-1
1.178658772E1,-3.566699848E-2,-6.976000033E-3,2.413119972E-1
1.180059333E1,-3.566699848E-2,-6.976000033E-3,2.413119972E-1
1.181459824E1,-1.886500046E-2,-1.763099991E-2,2.075629979E-1
1.182860387E1,-1.113799959E-2,-2.823499963E-2,1.944749951E-1
1.184261022E1,-3.160300106E-2,-5.685500056E-2,2.397640049E-1
1.185661580E1,-3.160300106E-2,-5.685500056E-2,2.397640049E-1
1.187062065E1,-2.859999891E-3,-7.020399719E-2,2.639069855E-1
1.188462637E1,1.435799990E-2,-7.240799814E-2,2.303320020E-1
1.189863277E1,1.435799990E-2,-7.240799814E-2,2.303320020E-1
1.191263841E1,-3.888000036E-3,-6.148000062E-2,2.274879962E-1
1.192664318E1,8.422999643E-3,-3.822400048E-2,2.416789979E-1
1.194064889E1,8.422999643E-3,-3.822400048E-2,2.416789979E-1
1.195465527E1,-7.040000055E-4,-3.998999950E-3,1.871509999E-1
1.196866088E1,9.145000018E-3,-1.401199959E-2,1.912000030E-1
1.198266573E1,3.187900037E-2,-3.485200182E-2,2.718150020E-1
1.199667141E1,3.187900037E-2,-3.485200182E-2,2.718150020E-1
1.201067778E1,1.766999997E-2,-5.158599839E-2,2.328400016E-1
1.202468342E1,7.519900054E-2,-4.053999856E-2,1.507620066E-1
1.203868824E1,7.519900054E-2,-4.053999856E-2,1.507620066E-1
1.205269393E1,6.113699824E-2,-5.827499926E-2,2.431229949E-1
1.206670035E1,2.225499973E-2,-1.148100011E-2,2.807509899E-1
1.208070594E1,2.225499973E-2,-1.148100011E-2,2.807509899E-1
1.209471076E1,-2.910000039E-3,2.518500015E-2,2.369470000E-1
1.210871646E1,-2.617700025E-2,1.774800010E-2,2.146120071E-1
1.212272284E1,-2.882900089E-2,-2.020099945E-2,2.202199996E-1
1.213672849E1,-2.882900089E-2,-2.020099945E-2,2.202199996E-1
1.215073330E1,-3.679899871E-2,-4.741299897E-2,2.190759927E-1
1.216473901E1,-1.577699929E-2,-4.970299825E-2,2.303510010E-1
1.217874542E1,-1.577699929E-2,-4.970299825E-2,2.303510010E-1
1.219275108E1,2.047500014E-2,-5.249999836E-2,2.415210009E-1
1.220675593E1,2.859400027E-2,-2.410100028E-2,2.381470054E-1
1.222076154E1,2.859400027E-2,-2.410100028E-2,2.381470054E-1
1.223476798E1,8.638000116E-3,-5.788100138E-2,2.267570049E-1
1.224877358E1,5.733000115E-3,-3.739200160E-2,2.613359988E-1
1.226277844E1,-1.536700036E-2,-2.949699946E-2,2.305150032E-1
1.227678409E1,-1.536700036E-2,-2.949699946E-2,2.305150032E-1
1.229079057E1,1.346699987E-2,-2.749199979E-2,1.901240051E-1
1.230479618E1,4.253799841E-2,-4.119399935E-2,2.197629958E-1
1.231880100E1,4.253799841E-2,-4.119399935E-2,2.197629958E-1
1.233280667E1,3.550399840E-2,-1.613800041E-2,2.261269987E-1
1.234681305E1,3.581000119E-2,-1.510899980E-2,2.206339985E-1
1.236081866E1,3.581000119E-2,-1.510899980E-2,2.206339985E-1
1.237482347E1,3.326300159E-2,-2.239700034E-2,2.299920022E-1
1.238882906E1,4.303500056E-2,-2.246600017E-2,2.531960011E-1
1.240283548E1,1.862400025E-2,-2.369100042E-2,2.572360039E-1
1.241684107E1,1.862400025E-2,-2.369100042E-2,2.572360039E-1
1.243084594E1,1.446100045E-2,-4.121499881E-2,2.169640064E-1
1.244485158E1,-3.449999960E-3,-3.638499975E-2,2.070479989E-1
1.245885798E1,-3.449999960E-3,-3.638499975E-2,2.070479989E-1
1.247286366E1,-9.415999986E-3,-3.146800026E-2,2.183109969E-1
1.248686848E1,-1.358599961E-2,-3.686600178E-2,2.007009983E-1
1.250087410E1,-1.358599961E-2,-3.686600178E-2,2.007009983E-1
1.251488059E1,-1.060000039E-3,-4.128300026E-2,2.192749977E-1
1.252888619E1,-2.983999904E-3,-4.667099938E-2,2.288040072E-1
1.254289104E1,-1.745000016E-3,-5.622399971E-2,1.892949939E-1
1.255689668E1,-1.745000016E-3,-5.622399971E-2,1.892949939E-1
1.257090311E1,-2.768700011E-2,-2.869899943E-2,2.060589939E-1
1.258490872E1,-4.676000215E-3,-4.850300029E-2,2.487069964E-1
1.259891361E1,-4.676000215E-3,-4.850300029E-2,2.487069964E-1
1.261291921E1,2.625400014E-2,-3.827000037E-2,2.786569893E-1
1.262692573E1,1.582000055E-3,-3.651500121E-2,2.316419929E-1
1.264093134E1,1.582000055E-3,-3.651500121E-2,2.316419929E-1
1.265493614E1,-9.320000187E-3,-1.034999965E-3,2.203889936E-1
1.266894182E1,1.359200012E-2,-2.028400078E-2,2.536790073E-1
1.268294820E1,-6.140000187E-3,7.999000140E-3,1.596339941E-1
1.269695380E1,-6.140000187E-3,7.999000140E-3,1.596339941E-1
1.271095863E1,1.816700026E-2,-1.622300036E-2,1.802520007E-1
1.272496433E1,4.716100171E-2,-5.565200001E-2,2.808000147E-1
1.273897073E1,4.716100171E-2,-5.565200001E-2,2.808000147E-1
1.275297637E1,4.069399834E-2,-5.611500144E-2,1.808580011E-1
1.276698124E1,6.353099644E-2,-4.746399820E-2,1.847310066E-1
1.278098694E1,6.353099644E-2,-4.746399820E-2,1.847310066E-1
1.279499337E1,3.926099837E-2,-3.765299916E-2,2.858999968E-1
1.280899901E1,-1.508899964E-2,-2.072899975E-2,2.689630091E-1
1.282300389E1,-1.681100018E-2,4.995000083E-3,2.236129940E-1
1.283700951E1,-1.681100018E-2,4.995000083E-3,2.236129940E-1
1.285101596E1,-3.916899860E-2,-1.601300016E-2,2.108560055E-1
1.286502160E1,-1.602100022E-2,-3.161999956E-2,1.835090071E-1
1.287902646E1,-1.602100022E-2,-3.161999956E-2,1.835090071E-1
1.289303216E1,-3.337000031E-3,-5.827800184E-2,2.005019933E-1
1.290703854E1,2.170200087E-2,-6.168000028E-2,2.315019965E-1
1.292104416E1,2.170200087E-2,-6.168000028E-2,2.315019965E-1
1.293504895E1,2.042300068E-2,-4.475900158E-2,2.340330034E-1
1.294905462E1,1.673099957E-2,-3.177399933E-2,2.334589958E-1
1.296306098E1,-1.209000009E-3,-1.293100044E-2,2.208870053E-1
1.297706656E1,-1.209000009E-3,-1.293100044E-2,2.208870053E-1
1.299107143E1,-3.437000094E-3,-3.491000086E-2,2.681530118E-1
1.300507705E1,-7.435000036E-3,-2.449399978E-2,1.970719993E-1
1.301908340E1,-7.435000036E-3,-2.449399978E-2,1.970719993E-1
1.303308894E1,1.912800036E-2,-2.476599999E-2,1.668819934E-1
1.304709374E1,2.600299940E-2,-4.896099865E-2,2.263049930E-1
1.306109944E1,2.600299940E-2,-4.896099865E-2,2.263049930E-1
1.307510583E1,2.104900032E-2,-1.584500074E-2,2.502540052E-1
1.308911142E1,3.246200085E-2,-9.646999650E-3,2.381860018E-1
1.310311624E1,2.407200076E-2,-1.322199963E-2,2.409839928E-1
1.311712192E1,2.407200076E-2,-1.322199963E-2,2.409839928E-1
1.313112835E1,2.854599990E-2,-2.359299920E-2,2.446759939E-1
1.314513400E1,4.310899973E-2,-4.017199948E-2,2.233289927E-1
1.315913896E1,4.310899973E-2,-4.017199948E-2,2.233289927E-1
1.317314461E1,1.940499991E-2,-3.533300012E-2,2.089820057E-1
1.318715100E1,5.094999913E-3,-3.406799957E-2,2.226639986E-1
1.320115659E1,5.094999913E-3,-3.406799957E-2,2.226639986E-1
1.321516154E1,5.272999872E-3,-3.537200019E-2,2.054560035E-1
1.322916715E1,-3.745999886E-3,-3.404299915E-2,2.343579978E-1
1.324317352E1,-3.506999929E-3,-2.746899985E-2,2.312739938E-1
1.325717915E1,-3.506999929E-3,-2.746899985E-2,2.312739938E-1
1.327118407E1,4.539999936E-4,-3.824700043E-2,2.202849984E-1
1.328518967E1,1.246799994E-2,-2.647699974E-2,1.913750023E-1
1.329919602E1,1.246799994E-2,-2.647699974E-2,1.913750023E-1
1.331320170E1,-1.363900024E-2,-1.744800061E-2,2.108969986E-1
1.332720664E1,-1.162900031E-2,-3.014600091E-2,2.446240038E-1
1.334121227E1,-1.162900031E-2,-3.014600091E-2,2.446240038E-1
1.335521864E1,2.079400048E-2,-2.367099933E-2,2.688939869E-1
1.336922424E1,3.164499998E-2,-3.348999890E-3,2.257200032E-1
1.338322916E1,2.950000111E-3,-1.125099976E-2,2.068569958E-1
1.339723477E1,2.950000111E-3,-1.125099976E-2,2.068569958E-1
1.341124116E1,1.731000026E-3,-1.768600009E-2,2.607960105E-1
1.342524685E1,6.333999801E-3,4.716999829E-3,1.560969949E-1
1.343925172E1,6.333999801E-3,4.716999829E-3,1.560969949E-1
1.345325735E1,2.499100007E-2,7.397999987E-3,2.258780003E-1
1.346726371E1,5.237700045E-2,-4.227799922E-2,2.539530098E-1
1.348126943E1,5.237700045E-2,-4.227799922E-2,2.539530098E-1
1.349527432E1,3.695999831E-2,-3.722000122E-2,2.059379965E-1
1.350927993E1,5.747000128E-2,-2.590700053E-2,1.282590032E-1
1.352328632E1,3.904499859E-2,-3.426399827E-2,2.708779871E-1
1.353729201E1,3.904499859E-2,-3.426399827E-2,2.708779871E-1
1.355129681E1,-1.091699954E-2,-3.597999923E-3,2.940630019E-1
1.356530245E1,2.325000009E-3,1.423200034E-2,2.436189950E-1
1.357930883E1,2.325000009E-3,1.423200034E-2,2.436189950E-1
1.359331453E1,-1.817700081E-2,-8.864000440E-3,2.180750072E-1
1.360731938E1,-1.753200032E-2,-2.563700080E-2,2.128179967E-1
1.362132507E1,-1.753200032E-2,-2.563700080E-2,2.128179967E-1
1.363533145E1,3.198999912E-3,-5.126500130E-2,2.274969965E-1
1.364933704E1,2.411999926E-2,-4.712399840E-2,2.534919977E-1
1.366334190E1,2.342800051E-2,-5.769300088E-2,2.361889929E-1
1.367734761E1,2.342800051E-2,-5.769300088E-2,2.361889929E-1
1.369135402E1,2.552000061E-2,-4.191099852E-2,2.193119973E-1
1.370535961E1,5.956999958E-3,-3.256300092E-2,2.381000072E-1
1.371936446E1,5.956999958E-3,-3.256300092E-2,2.381000072E-1
1.373337015E1,2.108800039E-2,-4.597000033E-2,2.277999967E-1
1.374737650E1,-6.256000139E-3,-3.576099873E-2,2.531439960E-1
1.376138210E1,-6.256000139E-3,-3.576099873E-2,2.531439960E-1
1.377538699E1,-6.165000144E-3,-2.300200053E-2,1.723860055E-1
1.378939262E1,1.673799939E-2,-4.809999838E-2,2.339390069E-1
1.380339899E1,3.083699942E-2,-2.181899920E-2,2.480659932E-1
1.381740461E1,3.083699942E-2,-2.181899920E-2,2.480659932E-1
1.383140954E1,2.655499987E-2,-1.850200072E-2,2.369440049E-1
1.384541515E1,3.072500043E-2,-1.020899974E-2,2.411890030E-1
1.385942156E1,3.072500043E-2,-1.020899974E-2,2.411890030E-1
1.387342712E1,2.370099910E-2,-1.992299967E-2,2.213789970E-1
1.388743204E1,2.706000023E-2,-3.183000162E-2,2.476039976E-1
1.390143770E1,2.706000023E-2,-3.183000162E-2,2.476039976E-1
1.391544409E1,2.541700006E-2,-3.398799896E-2,2.174289972E-1
1.392944977E1,2.805699967E-2,-3.425899893E-2,2.095980048E-1
1.394345459E1,2.381999977E-2,-2.154999971E-2,2.148669958E-1
1.395746024E1,2.381999977E-2,-2.154999971E-2,2.148669958E-1
1.397146671E1,1.192499977E-2,-2.888200060E-2,2.199459970E-1
1.398547235E1,1.436999999E-3,-2.889399976E-2,2.296009958E-1
1.399947717E1,1.436999999E-3,-2.889399976E-2,2.296009958E-1
1.401348278E1,1.352899987E-2,-4.469799995E-2,2.250790000E-1
1.402748920E1,3.353900090E-2,-6.529600173E-2,1.843460053E-1
1.404149482E1,3.353900090E-2,-6.529600173E-2,1.843460053E-1
1.405549968E1,1.248900034E-2,-6.229300052E-2,2.182199955E-1
1.406950531E1,-8.034000173E-3,-4.490000010E-2,2.683509886E-1
1.408351170E1,-1.540999976E-3,-4.270299897E-2,2.507869899E-1
1.409751735E1,-1.540999976E-3,-4.270299897E-2,2.507869899E-1
1.411152232E1,-2.337000100E-3,-2.839200012E-2,2.521049976E-1
1.412552790E1,-1.736499928E-2,-1.157699991E-2,2.534370124E-1
1.413953426E1,-1.736499928E-2,-1.157699991E-2,2.534370124E-1
1.415353988E1,-8.758000098E-3,-2.630499937E-2,2.929799855E-1
1.416754478E1,-7.379999734E-4,-6.219000090E-3,1.386539936E-1
1.418155044E1,-7.379999734E-4,-6.219000090E-3,1.386539936E-1
1.419555680E1,2.875100076E-2,-2.744299918E-2,2.047639936E-1
1.420956249E1,4.806600139E-2,-7.006300241E-2,2.577799857E-1
1.422356735E1,6.057000160E-2,-5.936999992E-2,2.500840127E-1
1.423757300E1,6.057000160E-2,-5.936999992E-2,2.500840127E-1
1.425157935E1,6.140799820E-2,-5.556600168E-2,1.154420003E-1
1.426558504E1,6.149699911E-2,-3.937700018E-2,2.438900024E-1
1.427958992E1,6.149699911E-2,-3.937700018E-2,2.438900024E-1
1.429359551E1,1.145900041E-2,-3.532499820E-2,2.864690125E-1
1.430760196E1,-1.274999976E-2,-8.506000042E-3,2.294970006E-1
1.432160758E1,-1.274999976E-2,-8.506000042E-3,2.294970006E-1
1.433561239E1,-1.641800068E-2,-3.016900085E-2,1.720999926E-1
1.434961809E1,-1.524799969E-2,-6.117700040E-2,1.851830035E-1
1.436362449E1,-9.537000209E-3,-8.532100171E-2,2.010769993E-1
1.437763014E1,-9.537000209E-3,-8.532100171E-2,2.010769993E-1
1.439163511E1,1.810000092E-2,-4.935900122E-2,2.046860009E-1
1.440564068E1,2.944499999E-2,-1.734899916E-2,2.165320069E-1
1.441964709E1,2.944499999E-2,-1.734899916E-2,2.165320069E-1
1.443365268E1,2.783199959E-2,-3.326199949E-2,2.217140049E-1
1.444765760E1,3.321399912E-2,-1.682199910E-2,2.107769996E-1
1.446166328E1,3.321399912E-2,-1.682199910E-2,2.107769996E-1
1.447566969E1,2.602599934E-2,-3.483700007E-2,2.029339969E-1
1.448967540E1,-1.919900067E-2,-2.864200063E-2,2.690469921E-1
1.450368027E1,-2.983999904E-3,-3.139299899E-2,1.554010063E-1
1.451768588E1,-2.983999904E-3,-3.139299899E-2,1.554010063E-1
1.453169224E1,1.294600032E-2,-4.699100181E-2,1.660539955E-1
1.454569794E1,2.432999946E-2,-1.174999960E-2,2.419079989E-1
1.455970281E1,2.432999946E-2,-1.174999960E-2,2.419079989E-1
1.457370846E1,4.369999841E-2,-3.100000089E-3,2.186080068E-1
1.458771482E1,3.907600045E-2,-3.726999974E-3,2.013749927E-1
1.460172043E1,3.907600045E-2,-3.726999974E-3,2.013749927E-1
1.461572529E1,3.312399983E-2,-1.200100034E-2,2.466980070E-1
1.462973102E1,3.161299974E-2,-1.292600017E-2,2.494390011E-1
1.464373743E1,2.082799934E-2,-1.912399940E-2,2.300850004E-1
1.465774304E1,2.082799934E-2,-1.912399940E-2,2.300850004E-1
1.467174792E1,1.612400077E-2,-3.142200038E-2,2.208199948E-1
1.468575352E1,-7.625000086E-3,-3.304199874E-2,2.133360058E-1
1.469975990E1,-7.625000086E-3,-3.304199874E-2,2.133360058E-1
1.471376549E1,1.139799971E-2,-2.645500004E-2,1.994650066E-1
1.472777040E1,1.667100005E-2,-2.403300069E-2,2.217330039E-1
1.474177603E1,1.667100005E-2,-2.403300069E-2,2.217330039E-1
1.475578245E1,3.518000012E-3,-2.713100053E-2,2.225150019E-1
1.476978813E1,1.844199933E-2,-2.909000032E-2,1.896820068E-1
1.478379301E1,1.184600033E-2,-1.879400015E-2,2.091230005E-1
1.479779859E1,1.184600033E-2,-1.879400015E-2,2.091230005E-1
1.481180506E1,-1.021500025E-2,-1.561599970E-2,2.506789863E-1
1.482581069E1,2.680999925E-3,-2.828999981E-2,2.672390044E-1
1.483981556E1,2.680999925E-3,-2.828999981E-2,2.672390044E-1
1.485382121E1,3.677000059E-3,-2.740800008E-2,2.509039938E-1
1.486782758E1,-9.029000066E-3,2.653999953E-3,2.439319938E-1
1.488183318E1,-9.029000066E-3,2.653999953E-3,2.439319938E-1
1.489583814E1,1.580099948E-2,5.195000209E-3,2.524339855E-1
1.490984379E1,-8.991999552E-3,2.002399974E-2,1.438020021E-1
1.492385021E1,1.527400035E-2,-5.094000138E-3,1.775909960E-1
1.493785583E1,1.527400035E-2,-5.094000138E-3,1.775909960E-1
1.495186072E1,5.129199848E-2,-3.151100129E-2,2.375189960E-1
1.496586632E1,3.893600032E-2,-4.826200008E-2,1.835930049E-1
1.497987268E1,3.893600032E-2,-4.826200008E-2,1.835930049E-1
1.499387837E1,5.808399990E-2,-5.372200161E-2,1.586699933E-1
1.500788327E1,5.003499985E-2,-2.365300059E-2,2.731069922E-1
1.502188888E1,5.003499985E-2,-2.365300059E-2,2.731069922E-1
1.503589526E1,8.740000427E-3,3.480000014E-4,2.864100039E-1
1.504990093E1,-5.310000270E-4,1.732699946E-2,2.164510041E-1
1.506390581E1,-2.315000072E-2,-5.838000216E-3,2.203159928E-1
1.507791151E1,-2.315000072E-2,-5.838000216E-3,2.203159928E-1
1.509191792E1,-2.162200026E-2,-2.250899933E-2,1.924169958E-1
1.510592350E1,2.986999927E-3,-3.964399919E-2,2.068520039E-1
1.511992832E1,2.986999927E-3,-3.964399919E-2,2.068520039E-1
1.513393402E1,2.045799978E-2,-2.807899937E-2,2.304130048E-1
1.514794041E1,3.071399964E-2,-3.304199874E-2,2.388219982E-1
1.516194604E1,3.071399964E-2,-3.304199874E-2,2.388219982E-1
1.517595094E1,2.311900072E-2,-2.016700059E-2,2.290280014E-1
1.518995658E1,-2.400999889E-3,-2.873999998E-2,2.254090011E-1
1.520396300E1,8.977999911E-3,-2.763699926E-2,2.277449965E-1
1.521796858E1,8.977999911E-3,-2.763699926E-2,2.277449965E-1
1.523197351E1,-1.169599965E-2,-3.053100035E-2,2.599290013E-1
1.524597906E1,-3.223000094E-3,-3.190699965E-2,1.862840056E-1
1.525998546E1,-3.223000094E-3,-3.190699965E-2,1.862840056E-1
1.527399117E1,3.312499821E-2,-2.985100076E-2,1.642049998E-1
1.528799603E1,3.861699998E-2,-1.061599981E-2,2.257220000E-1
1.530200163E1,3.861699998E-2,-1.061599981E-2,2.257220000E-1
1.531600811E1,2.525700070E-2,1.392000006E-3,2.355220020E-1
1.533001370E1,4.680699855E-2,-1.331400033E-2,2.441309988E-1
1.534401857E1,2.458100021E-2,-1.155999955E-3,2.486999929E-1
1.535802423E1,2.458100021E-2,-1.155999955E-3,2.486999929E-1
1.537203061E1,1.697500050E-2,-1.340799965E-2,2.503969967E-1
1.538603624E1,1.662399992E-2,-2.859500051E-2,2.052399963E-1
1.540004117E1,1.662399992E-2,-2.859500051E-2,2.052399963E-1
1.541404672E1,1.128000021E-2,-1.563899964E-2,2.051050067E-1
1.542805311E1,4.273999948E-3,-1.688599959E-2,2.119089961E-1
1.544205872E1,4.273999948E-3,-1.688599959E-2,2.119089961E-1
1.545606364E1,-9.429999627E-3,-4.749500006E-2,2.116300017E-1
1.547006929E1,-7.519999985E-3,-3.880700096E-2,2.094299942E-1
1.548407567E1,4.056000151E-3,-4.044700041E-2,2.232100070E-1
1.549808125E1,4.056000151E-3,-4.044700041E-2,2.232100070E-1
1.551208615E1,-5.380000221E-4,-3.522599861E-2,2.208939940E-1
1.552609177E1,1.290600002E-2,-3.385400027E-2,2.035139948E-1
1.554009815E1,1.290600002E-2,-3.385400027E-2,2.035139948E-1
1.555410384E1,1.110999961E-3,-1.520899963E-2,1.934410036E-1
1.556810870E1,-2.363000065E-3,-2.629899979E-2,2.393970042E-1
1.558211430E1,-2.363000065E-3,-2.629899979E-2,2.393970042E-1
1.559612070E1,1.811400056E-2,-2.584199980E-2,2.544200122E-1
1.561012638E1,1.214099955E-2,-9.480999783E-3,2.391410023E-1
1.562413125E1,-1.652299985E-2,-4.174000118E-3,2.290759981E-1
1.563813689E1,-1.652299985E-2,-4.174000118E-3,2.290759981E-1
1.565214325E1,6.701000035E-3,-2.175999992E-2,2.545900047E-1
1.566614890E1,-3.197999904E-3,1.726699993E-2,1.758269966E-1
1.568015371E1,-3.197999904E-3,1.726699993E-2,1.758269966E-1
1.569415939E1,2.360199951E-2,-1.520000026E-2,2.023030072E-1
1.570816581E1,6.711599976E-2,-4.142599925E-2,2.559970021E-1
1.572217144E1,6.711599976E-2,-4.142599925E-2,2.559970021E-1
1.573617629E1,2.885399945E-2,-4.817099869E-2,1.702329963E-1
1.575018201E1,5.632099882E-2,-4.305600002E-2,1.432099938E-1
1.576418836E1,3.815900162E-2,-4.225900024E-2,2.564350069E-1
1.577819398E1,3.815900162E-2,-4.225900024E-2,2.564350069E-1
1.579219892E1,-1.188500039E-2,-1.233199984E-2,2.736200094E-1
1.580620456E1,-3.488099948E-2,2.585100010E-2,2.223590016E-1
1.582021098E1,-3.488099948E-2,2.585100010E-2,2.223590016E-1
1.583421659E1,-1.453999989E-2,-4.858000204E-3,2.059759945E-1
1.584822154E1,-2.525000088E-2,-2.947800048E-2,2.027679980E-1
1.586222715E1,-2.525000088E-2,-2.947800048E-2,2.027679980E-1
1.587623354E1,4.484999925E-3,-4.250499979E-2,1.978549957E-1
1.589023915E1,2.589599974E-2,-3.511599824E-2,2.318789959E-1
1.590424412E1,1.810000092E-2,-3.186500072E-2,2.296579927E-1
1.591824973E1,1.810000092E-2,-3.186500072E-2,2.296579927E-1
1.593225609E1,1.919499971E-2,-3.354100138E-2,2.293040007E-1
1.594626180E1,1.188900042E-2,-2.426899970E-2,2.048230022E-1
1.596026664E1,1.188900042E-2,-2.426899970E-2,2.048230022E-1
1.597427224E1,1.370999962E-3,-2.885700017E-2,2.163819969E-1
1.598827865E1,-1.296200044E-2,-2.266900055E-2,2.507390082E-1
1.600228435E1,-1.296200044E-2,-2.266900055E-2,2.507390082E-1
1.601628920E1,-2.647999907E-3,-1.414499991E-2,2.063080072E-1
1.603029484E1,2.778000012E-2,-2.536799945E-2,2.053689957E-1
1.604430133E1,1.678900048E-2,-3.444800153E-2,2.029660046E-1
1.605830696E1,1.678900048E-2,-3.444800153E-2,2.029660046E-1
1.607231182E1,2.361799963E-2,1.051199995E-2,2.168229967E-1
1.608631748E1,2.337200008E-2,-1.793999970E-2,2.556230128E-1
1.610032389E1,2.337200008E-2,-1.793999970E-2,2.556230128E-1
1.611432945E1,2.481400035E-2,-1.497799996E-2,2.743619978E-1
1.612833429E1,3.962099925E-2,-2.462399937E-2,2.639780045E-1
1.614233999E1,1.277299970E-2,-1.468299981E-2,2.276539952E-1
1.615634635E1,1.277299970E-2,-1.468299981E-2,2.276539952E-1
1.617035197E1,3.720000095E-4,-1.746400073E-2,2.137220055E-1
1.618435683E1,3.063000040E-3,-5.164000206E-3,2.327930033E-1
1.619836251E1,3.063000040E-3,-5.164000206E-3,2.327930033E-1
1.621236884E1,-9.095000103E-3,-2.168600075E-2,2.517279983E-1
1.622637446E1,9.251999669E-3,-3.468799964E-2,2.686330080E-1
1.624037930E1,9.251999669E-3,-3.468799964E-2,2.686330080E-1
1.625438496E1,2.756500058E-2,-3.475400060E-2,2.346819937E-1
1.626839135E1,1.675700024E-2,-1.231299993E-2,1.899690032E-1
1.628239699E1,1.934799924E-2,-1.649999991E-3,1.475590020E-1
1.629640185E1,1.934799924E-2,-1.649999991E-3,1.475590020E-1
1.631040752E1,2.505999990E-2,1.280499995E-2,1.314769983E-1
1.632441394E1,8.016999811E-3,-1.122900005E-2,1.612379998E-1
1.633841955E1,8.016999811E-3,-1.122900005E-2,1.612379998E-1
1.635242448E1,-4.949999973E-3,-3.034700081E-2,2.407609969E-1
1.636643014E1,7.517999969E-3,-6.738899648E-2,3.091039956E-1
1.638043655E1,7.517999969E-3,-6.738899648E-2,3.091039956E-1
1.639444211E1,9.235999547E-3,-5.447800085E-2,2.960290015E-1
1.640844704E1,-3.779400140E-2,-2.123899944E-2,2.695260048E-1
1.642245266E1,-7.240000181E-3,-1.247499976E-2,2.651360035E-1
1.643645904E1,-7.240000181E-3,-1.247499976E-2,2.651360035E-1
1.645046462E1,-1.632500067E-2,5.333400145E-2,1.404249966E-1
1.646446954E1,5.867000204E-3,5.094899982E-2,1.819739938E-1
1.647847520E1,5.867000204E-3,5.094899982E-2,1.819739938E-1
1.649248160E1,7.774999738E-2,2.359599993E-2,1.766529977E-1
1.650648725E1,3.033000045E-2,-3.693699837E-2,1.671459973E-1
1.652049218E1,3.033000045E-2,-3.693699837E-2,1.671459973E-1
1.653449780E1,7.172899693E-2,-5.579100177E-2,1.475670040E-1
1.654850418E1,3.739200160E-2,-7.722900063E-2,2.781270146E-1
1.656250978E1,1.735899970E-2,-4.638800025E-2,2.989760041E-1
1.657651465E1,1.735899970E-2,-4.638800025E-2,2.989760041E-1
1.659052023E1,1.417599991E-2,5.857999902E-3,2.683930099E-1
1.660452662E1,-1.760200039E-2,1.665700041E-2,2.322980016E-1
1.661853227E1,-1.760200039E-2,1.665700041E-2,2.322980016E-1
1.663253718E1,-2.690299973E-2,1.470100041E-2,1.815530062E-1
1.664654281E1,2.572700009E-2,-1.970000006E-2,1.988569945E-1
1.666054922E1,2.572700009E-2,-1.970000006E-2,1.988569945E-1
1.667455481E1,4.600699991E-2,-4.914100096E-2,2.253800035E-1
1.668855970E1,3.767199814E-2,-3.822999820E-2,2.256119996E-1
1.670256523E1,4.402400181E-2,-6.379000098E-2,2.346380055E-1
1.671657159E1,4.402400181E-2,-6.379000098E-2,2.346380055E-1
1.673057720E1,1.320600044E-2,-6.176500022E-2,2.660560012E-1
1.674458211E1,1.230600011E-2,-6.936399639E-2,2.436060011E-1
1.675858773E1,1.230600011E-2,-6.936399639E-2,2.436060011E-1
1.677259413E1,-4.130000016E-4,-4.312900081E-2,2.926819921E-1
1.678659974E1,-1.282299962E-2,-2.443899959E-2,1.994709969E-1
1.680060466E1,-1.282299962E-2,-2.443899959E-2,1.994709969E-1
1.681461030E1,1.291699987E-2,1.415999979E-2,1.628549993E-1
1.682861673E1,1.900500059E-2,1.557299960E-2,1.771579981E-1
1.684262228E1,3.359299898E-2,2.148400061E-2,1.699640006E-1
1.685662719E1,3.359299898E-2,2.148400061E-2,1.699640006E-1
1.687063277E1,2.723900042E-2,-8.101999760E-3,2.215130031E-1
1.688463913E1,2.314000018E-2,-4.349000007E-2,2.699210048E-1
1.689864478E1,2.314000018E-2,-4.349000007E-2,2.699210048E-1
1.691264969E1,2.320200019E-2,-6.281100214E-2,3.097049892E-1
1.692665536E1,1.917300001E-2,-9.495499730E-2,2.783519924E-1
1.694066175E1,1.917300001E-2,-9.495499730E-2,2.783519924E-1
1.695466734E1,3.501699865E-2,-6.006700173E-2,2.718389928E-1
1.696867228E1,2.023999952E-2,-7.226999849E-3,2.257509977E-1
1.698267789E1,1.369599998E-2,1.011999976E-2,1.952140033E-1
1.699668427E1,1.369599998E-2,1.011999976E-2,1.952140033E-1
1.701068989E1,1.888900064E-2,1.053499989E-2,1.506849974E-1
1.702469475E1,5.086999852E-3,-9.889000095E-3,1.634480059E-1
1.703870040E1,5.086999852E-3,-9.889000095E-3,1.634480059E-1
1.705270683E1,-8.441000246E-3,-4.123099893E-2,1.848360002E-1
1.706671248E1,-3.876999952E-3,-8.880499750E-2,1.957069933E-1
1.708071734E1,-3.876999952E-3,-8.880499750E-2,1.957069933E-1
1.709472306E1,3.272200003E-2,-1.101590022E-1,2.117590010E-1
1.710872946E1,1.328099985E-2,-8.405199647E-2,2.366019934E-1
1.712273506E1,-7.135000080E-3,-6.114000082E-2,2.390999943E-1
1.713673993E1,-7.135000080E-3,-6.114000082E-2,2.390999943E-1
1.715074560E1,-1.035199966E-2,-2.841199934E-2,2.488690019E-1
1.716475197E1,4.784000106E-3,-1.607800089E-2,2.725299895E-1
1.717875760E1,4.784000106E-3,-1.607800089E-2,2.725299895E-1
1.719276244E1,-8.592000231E-3,-3.112999955E-3,2.572509944E-1
1.720676806E1,1.111800037E-2,-1.802399941E-2,2.356629968E-1
1.722077444E1,1.111800037E-2,-1.802399941E-2,2.356629968E-1
1.723478010E1,2.511899918E-2,-1.424000016E-3,1.081940010E-1
1.724878493E1,5.812399834E-2,-2.533400059E-2,1.680369973E-1
1.726279058E1,6.704100221E-2,-5.690199882E-2,2.510200143E-1
1.727679696E1,6.704100221E-2,-5.690199882E-2,2.510200143E-1
1.729080265E1,5.151600018E-2,-5.027600005E-2,1.580969989E-1
1.730480754E1,4.563200101E-2,-1.760699973E-2,9.200499952E-2
1.731881316E1,4.563200101E-2,-1.760699973E-2,9.200499952E-2
1.733281956E1,2.558300085E-2,-2.018699981E-2,2.483779937E-1
1.734682524E1,-5.735000130E-3,-2.398099937E-2,2.967779934E-1
1.736083010E1,-5.735000130E-3,-2.398099937E-2,2.967779934E-1
1.737483572E1,-2.849099971E-2,-1.145000011E-2,2.329300046E-1
1.738884214E1,-3.323400021E-2,-4.454499856E-2,2.086250037E-1
1.740284775E1,-2.654599957E-2,-6.104699895E-2,2.113209963E-1
1.741685266E1,-2.654599957E-2,-6.104699895E-2,2.113209963E-1
1.743085828E1,1.452300046E-2,-5.414500087E-2,2.190620005E-1
1.744486466E1,2.649099939E-2,-3.887299821E-2,2.124499977E-1
1.745887028E1,2.649099939E-2,-3.887299821E-2,2.124499977E-1
1.747287522E1,3.566800058E-2,-2.261899970E-2,2.040079981E-1
1.748688080E1,2.381700091E-2,9.699000046E-3,2.064040005E-1
1.750088717E1,2.381700091E-2,9.699000046E-3,2.064040005E-1
1.751489273E1,1.671300083E-2,-5.020000041E-3,2.130060047E-1
1.752889755E1,6.752999965E-3,-2.668599971E-2,2.082480043E-1
1.754290325E1,-7.652000058E-3,-5.038300157E-2,2.801750004E-1
1.755690963E1,-7.652000058E-3,-5.038300157E-2,2.801750004E-1
1.757091525E1,-1.031600032E-2,-4.969700053E-2,1.786970049E-1
1.758492014E1,4.214600101E-2,-4.191200063E-2,1.603229940E-1
1.759892579E1,4.214600101E-2,-4.191200063E-2,1.603229940E-1
1.761293215E1,4.356399924E-2,-2.240400016E-2,2.420559973E-1
1.762693774E1,3.894799948E-2,2.729400061E-2,2.343530059E-1
1.764094261E1,3.894799948E-2,2.729400061E-2,2.343530059E-1
1.765494825E1,4.319800064E-2,1.857599989E-2,2.215919942E-1
1.766895461E1,3.462500125E-2,-2.522999886E-3,2.515789866E-1
1.768296032E1,3.159600124E-2,-9.833999909E-3,2.383989990E-1
1.769696519E1,3.159600124E-2,-9.833999909E-3,2.383989990E-1
1.771097082E1,1.753799990E-2,-2.369399928E-2,2.008720040E-1
1.772497720E1,3.194199875E-2,-3.687899932E-2,2.117729932E-1
1.773898281E1,3.194199875E-2,-3.687899932E-2,2.117729932E-1
1.775298775E1,-1.254000003E-3,-2.799900062E-2,2.257419974E-1
1.776699337E1,2.268000040E-3,-2.484700084E-2,2.127850056E-1
1.778099976E1,2.268000040E-3,-2.484700084E-2,2.127850056E-1
1.779500531E1,6.837999914E-3,-2.929699980E-2,2.235559970E-1
1.780901024E1,8.944000117E-3,-2.881800011E-2,2.174430043E-1
1.782301588E1,7.497000042E-3,-5.504999775E-3,2.114360034E-1
1.783702234E1,7.497000042E-3,-5.504999775E-3,2.114360034E-1
1.785102794E1,-1.289000036E-3,-1.188299991E-2,2.293460071E-1
1.786503274E1,1.085599978E-2,-3.383199871E-2,2.074179947E-1
1.787903842E1,1.085599978E-2,-3.383199871E-2,2.074179947E-1
1.789304477E1,3.314000089E-3,-8.589999750E-3,1.796640009E-1
1.790705040E1,-1.551000052E-3,8.750000270E-4,2.203969955E-1
1.792105527E1,-1.551000052E-3,8.750000270E-4,2.203969955E-1
1.793506090E1,-1.258100010E-2,-2.498899959E-2,2.727639973E-1
1.794906728E1,8.309000172E-3,-4.526599869E-2,2.494039983E-1
1.796307296E1,4.354999866E-3,-1.213700045E-2,2.316879928E-1
1.797707780E1,4.354999866E-3,-1.213700045E-2,2.316879928E-1
1.799108344E1,9.351000190E-3,-1.327000000E-2,2.493570000E-1
1.800508987E1,3.501000116E-3,-1.307999995E-2,2.296469957E-1
1.801909557E1,3.501000116E-3,-1.307999995E-2,2.296469957E-1
1.803310041E1,2.102700062E-2,8.800000069E-4,2.075960040E-1
1.804710600E1,4.618800059E-2,-9.895999916E-3,1.670189947E-1
1.806111239E1,4.618800059E-2,-9.895999916E-3,1.670189947E-1
1.807511806E1,5.843999982E-2,-3.632500023E-2,2.615909874E-1
1.808912303E1,4.107400030E-2,-4.179099947E-2,1.604710072E-1
1.810312867E1,6.788399816E-2,-3.314499930E-2,1.793420017E-1
1.811713505E1,6.788399816E-2,-3.314499930E-2,1.793420017E-1
1.813114062E1,1.056199986E-2,-2.854299918E-2,3.066549897E-1
1.814514556E1,-1.945099980E-2,1.354499999E-2,2.398589998E-1
1.815915119E1,-1.945099980E-2,1.354499999E-2,2.398589998E-1
1.817315757E1,-2.012100071E-2,1.273300033E-2,2.041109949E-1
1.818716319E1,-4.309599847E-2,-1.586999977E-3,2.094579935E-1
1.820116806E1,-4.309599847E-2,-1.586999977E-3,2.094579935E-1
1.821517364E1,-1.811699942E-2,-3.495199978E-2,1.911309958E-1
1.822918009E1,8.631999604E-3,-5.507799983E-2,2.087009996E-1
1.824318568E1,9.983000346E-3,-3.986399993E-2,2.111109942E-1
1.825719055E1,9.983000346E-3,-3.986399993E-2,2.111109942E-1
1.827119614E1,3.082500026E-2,-1.311200019E-2,2.163940072E-1
1.828520253E1,4.107499868E-2,-8.270000108E-3,1.930689961E-1
1.829920818E1,4.107499868E-2,-8.270000108E-3,1.930689961E-1
1.831321301E1,5.934699997E-2,7.561999839E-3,2.188300043E-1
1.832721860E1,3.358199820E-2,6.510000210E-3,2.647379935E-1
1.834122499E1,3.358199820E-2,6.510000210E-3,2.647379935E-1
1.835523059E1,6.510999985E-3,3.214000026E-3,3.343060017E-1
1.836923552E1,-1.019900013E-2,1.935799979E-2,2.697780132E-1
1.838324115E1,2.506699972E-2,-1.657000044E-3,2.112790048E-1
1.839724754E1,2.506699972E-2,-1.657000044E-3,2.112790048E-1
1.841125314E1,3.975399956E-2,-6.066999864E-3,2.286929935E-1
1.842525799E1,3.421000019E-2,-5.293999799E-3,2.556059957E-1
1.843926364E1,3.421000019E-2,-5.293999799E-3,2.556059957E-1
1.845327009E1,2.730499953E-2,9.472000413E-3,3.003369868E-1
1.846727571E1,1.072600018E-2,-7.608000189E-3,2.408619970E-1
1.848128058E1,1.072600018E-2,-7.608000189E-3,2.408619970E-1
1.849528619E1,-4.779399931E-2,-1.727899909E-2,2.372460067E-1
1.850929257E1,-6.032399833E-2,-2.533899993E-2,2.858699858E-1
1.852329816E1,-5.994100124E-2,-5.694299936E-2,2.650820017E-1
1.853730310E1,-5.994100124E-2,-5.694299936E-2,2.650820017E-1
1.855130874E1,-2.954399958E-2,-1.071719974E-1,1.968699992E-1
1.856531511E1,-5.578999873E-3,-9.563399851E-2,2.156330049E-1
1.857932074E1,-5.578999873E-3,-9.563399851E-2,2.156330049E-1
1.859332561E1,1.920000068E-4,-9.504199773E-2,2.423640043E-1
1.860733131E1,3.933500126E-2,-7.543899864E-2,2.109979987E-1
1.862133768E1,3.933500126E-2,-7.543899864E-2,2.109979987E-1
1.863534332E1,3.263900056E-2,-2.835999988E-2,2.639819980E-1
1.864934817E1,4.798699915E-2,-5.418200046E-2,2.833380103E-1
1.866335380E1,6.020399928E-2,-8.246099949E-2,2.049909979E-1
1.867736018E1,6.020399928E-2,-8.246099949E-2,2.049909979E-1
1.869136577E1,7.144500315E-2,-6.796599925E-2,1.071669981E-1
1.870537070E1,4.092900082E-2,-5.142699927E-2,7.900899649E-2
1.871937632E1,4.092900082E-2,-5.142699927E-2,7.900899649E-2
1.873338273E1,6.808999926E-3,-2.168999985E-3,5.750999972E-2
1.874738833E1,3.458000021E-3,-3.799799830E-2,1.494960040E-1
1.876139314E1,3.458000021E-3,-3.799799830E-2,1.494960040E-1
1.877539889E1,1.561900042E-2,-9.555000067E-2,2.860150039E-1
1.878940530E1,1.754200086E-2,-1.245810017E-1,3.160920143E-1
1.880341087E1,5.351100117E-2,-1.201900020E-1,3.441070020E-1
1.881741570E1,5.351100117E-2,-1.201900020E-1,3.441070020E-1
1.883142130E1,1.644800045E-2,-6.904300302E-2,2.154690027E-1
1.884542767E1,3.446200117E-2,1.052999985E-3,2.370440066E-1
1.885943337E1,3.446200117E-2,1.052999985E-3,2.370440066E-1
1.887343818E1,1.886500046E-2,2.596200071E-2,2.144719958E-1
1.888744379E1,1.356699970E-2,1.019110009E-1,2.856450081E-1
1.890145021E1,1.356699970E-2,1.019110009E-1,2.856450081E-1
1.891545581E1,7.892999798E-3,1.254899949E-1,7.328899950E-2
1.892946076E1,1.477400027E-2,1.133790016E-1,1.290650070E-1
1.894346634E1,-9.200000204E-4,3.097699955E-2,2.797940075E-1
1.895747273E1,-9.200000204E-4,3.097699955E-2,2.797940075E-1
1.897147837E1,-2.759700082E-2,-7.352899760E-2,2.564330101E-1
1.898548318E1,-4.738400131E-2,-1.276219934E-1,1.996379942E-1
1.899948876E1,-4.738400131E-2,-1.276219934E-1,1.996379942E-1
1.901349522E1,-6.118400022E-2,-1.709399968E-1,1.851669997E-1
1.902750082E1,-3.263999894E-2,-1.741150022E-1,1.860900074E-1
1.904150567E1,-3.263999894E-2,-1.741150022E-1,1.860900074E-1
1.905551129E1,4.600000102E-3,-1.095660031E-1,1.745509952E-1
1.906951764E1,5.728000030E-2,-3.272499889E-2,1.904129982E-1
1.908352325E1,7.493399829E-2,9.399999864E-3,1.980579942E-1
1.909752815E1,7.493399829E-2,9.399999864E-3,1.980579942E-1
1.911153379E1,6.511600316E-2,5.664800107E-2,2.206850052E-1
1.912554016E1,2.836400084E-2,4.215599969E-2,2.127320021E-1
1.913954577E1,2.836400084E-2,4.215599969E-2,2.127320021E-1
1.915355058E1,5.450500175E-2,2.105499990E-2,2.355870008E-1
1.916755620E1,1.729100011E-2,-7.689000107E-3,3.417159915E-1
1.918156258E1,1.729100011E-2,-7.689000107E-3,3.417159915E-1
1.919556826E1,8.848000318E-3,-1.144200005E-2,2.899580002E-1
1.920957312E1,3.491700068E-2,1.806800067E-2,2.754130065E-1
1.922357876E1,3.923499957E-2,8.044999838E-2,2.694599926E-1
1.923758516E1,3.923499957E-2,8.044999838E-2,2.694599926E-1
1.925159078E1,1.600500010E-2,7.272499800E-2,2.395240068E-1
1.926559571E1,6.134000141E-3,2.009500004E-2,1.975760013E-1
1.927960137E1,6.134000141E-3,2.009500004E-2,1.975760013E-1
1.929360777E1,1.966900006E-2,-3.173299879E-2,1.402850002E-1
1.930761339E1,-3.371000057E-3,-8.936099708E-2,1.574459970E-1
1.932161822E1,-3.371000057E-3,-8.936099708E-2,1.574459970E-1
1.933562383E1,4.689999914E-4,-1.309559941E-1,1.275369972E-1
1.934963021E1,-2.128100023E-2,-1.418009996E-1,1.552769989E-1
1.936363591E1,-1.363299973E-2,-1.264320016E-1,2.493059933E-1
1.937764076E1,-1.363299973E-2,-1.264320016E-1,2.493059933E-1
1.939164642E1,-1.439800020E-2,-3.804200143E-2,2.936980128E-1
1.940565279E1,-5.699999747E-4,2.109999955E-2,2.569119930E-1
1.941965841E1,-5.699999747E-4,2.109999955E-2,2.569119930E-1
1.943366319E1,1.764700003E-2,5.838400126E-2,2.314500064E-1
1.944766887E1,1.921400055E-2,7.746499777E-2,2.315029949E-1
1.946167524E1,1.921400055E-2,7.746499777E-2,2.315029949E-1
1.947568082E1,3.033000045E-2,4.091000184E-2,2.287120074E-1
1.948968565E1,5.608899891E-2,3.106199950E-2,2.244630009E-1
1.950369130E1,4.656200111E-2,1.351200044E-2,2.267660052E-1
1.951769768E1,4.656200111E-2,1.351200044E-2,2.267660052E-1
1.953170328E1,4.124199972E-2,-1.730700023E-2,2.334749997E-1
1.954570819E1,4.982300103E-2,-5.249800161E-2,2.205950022E-1
1.955971380E1,4.982300103E-2,-5.249800161E-2,2.205950022E-1
1.957372019E1,1.965500042E-2,-4.005400091E-2,1.772470027E-1
1.958772581E1,-5.262999795E-3,-6.743100286E-2,2.164400071E-1
1.960173063E1,-5.262999795E-3,-6.743100286E-2,2.164400071E-1
1.961573635E1,4.339999869E-4,-3.468099982E-2,1.895139962E-1
1.962974273E1,4.280999769E-3,-4.036200047E-2,2.423180044E-1
1.964374835E1,3.051899932E-2,-3.742299974E-2,1.891040057E-1
1.965775326E1,3.051899932E-2,-3.742299974E-2,1.891040057E-1
1.967175893E1,2.008699998E-2,-5.408700183E-2,2.562029958E-1
1.968576532E1,2.912599966E-2,-3.318800032E-2,1.630959958E-1
1.969977096E1,2.912599966E-2,-3.318800032E-2,1.630959958E-1
1.971377584E1,3.113899939E-2,-2.349700034E-2,2.082159966E-1
1.972778142E1,3.749999916E-3,9.526000358E-3,3.023529947E-1
1.974178786E1,3.749999916E-3,9.526000358E-3,3.023529947E-1
1.975579346E1,-1.868000021E-3,3.137699887E-2,2.417909950E-1
1.976979832E1,-2.108200081E-2,2.357899956E-2,1.998009980E-1
1.978380395E1,-1.958299987E-2,-2.520200051E-2,2.176599950E-1
1.979781031E1,-1.958299987E-2,-2.520200051E-2,2.176599950E-1
1.981181601E1,-6.955999881E-3,-5.949499831E-2,2.076880038E-1
1.982582082E1,1.542599965E-2,-6.248399988E-2,2.186210006E-1
1.983982643E1,1.542599965E-2,-6.248399988E-2,2.186210006E-1
1.985383284E1,3.091100045E-2,-6.075200066E-2,2.435809970E-1
1.986783844E1,3.784399852E-2,-3.995199874E-2,2.355149984E-1
1.988184332E1,3.784399852E-2,-3.995199874E-2,2.355149984E-1
1.989584894E1,2.414299920E-2,-1.674100012E-2,2.364100069E-1
1.990985531E1,3.278000047E-3,-2.410800010E-2,2.236550003E-1
1.992386094E1,1.539899968E-2,-2.629199997E-2,2.157649994E-1
1.993786577E1,1.539899968E-2,-2.629199997E-2,2.157649994E-1
1.995187140E1,1.107199956E-2,-1.228400040E-2,2.385240048E-1
1.996587774E1,1.162699983E-2,-1.516699977E-2,2.244659960E-1
1.997988340E1,1.162699983E-2,-1.516699977E-2,2.244659960E-1
1.999388831E1,3.309499845E-2,-3.455099836E-2,1.990099996E-1
2.000789394E1,3.119700029E-2,-1.573600061E-2,2.340490073E-1
2.002190032E1,3.119700029E-2,-1.573600061E-2,2.340490073E-1
2.003590595E1,3.619400039E-2,-1.171599980E-2,2.282239944E-1
2.004991082E1,2.719699964E-2,-3.858000040E-3,2.255399972E-1
2.006391646E1,2.404399961E-2,-1.173999975E-3,2.438430041E-1
2.007792289E1,2.404399961E-2,-1.173999975E-3,2.438430041E-1
2.009192853E1,7.106999867E-3,-7.693000138E-3,2.550939918E-1
2.010593335E1,1.936700009E-2,-1.392900012E-2,2.330490053E-1
2.011993895E1,1.936700009E-2,-1.392900012E-2,2.330490053E-1
2.013394530E1,2.445599996E-2,-3.059699945E-2,2.482810020E-1
2.014795095E1,3.039999865E-4,-3.765200078E-2,2.166350037E-1
2.016195586E1,3.039999865E-4,-3.765200078E-2,2.166350037E-1
2.017596151E1,-2.117000055E-3,-2.372699976E-2,2.091729939E-1
2.018996790E1,6.788999774E-3,-2.809599973E-2,2.107979953E-1
2.020397354E1,9.735000320E-3,-1.339599956E-2,1.894309968E-1
2.021797838E1,9.735000320E-3,-1.339599956E-2,1.894309968E-1
2.023198400E1,-5.319999997E-3,-4.026500136E-2,2.129729986E-1
2.024599037E1,1.235300023E-2,-4.261799902E-2,2.172099948E-1
2.025999608E1,1.235300023E-2,-4.261799902E-2,2.172099948E-1
2.027400092E1,8.321999572E-3,-2.777799964E-2,2.304559946E-1
2.028800653E1,2.644300088E-2,-3.677200153E-2,2.127149999E-1
2.030201288E1,2.644300088E-2,-3.677200153E-2,2.127149999E-1
2.031601851E1,-2.454000060E-3,-9.142999537E-3,2.034869939E-1
2.033002338E1,-7.399999886E-4,-7.253000047E-3,2.554250062E-1
2.034402911E1,1.550699957E-2,-4.770000000E-3,2.697710097E-1
2.035803550E1,1.550699957E-2,-4.770000000E-3,2.697710097E-1
2.037204112E1,1.319499966E-2,1.811000053E-3,2.325309962E-1
2.038604593E1,-8.539999835E-4,-5.113999825E-3,2.074410021E-1
2.040005157E1,-8.539999835E-4,-5.113999825E-3,2.074410021E-1
2.041405793E1,9.971000254E-3,-1.527199987E-2,2.550480068E-1
2.042806353E1,1.834299974E-2,3.727999981E-3,1.561049968E-1
2.044206844E1,1.834299974E-2,3.727999981E-3,1.561049968E-1
2.045607407E1,3.003199957E-2,-2.804600075E-2,2.126190066E-1
2.047008046E1,6.850399822E-2,-5.552000180E-2,2.681339979E-1
2.048408604E1,3.387700021E-2,-3.843599930E-2,2.052939981E-1
2.049809088E1,3.387700021E-2,-3.843599930E-2,2.052939981E-1
2.051209651E1,5.536700040E-2,-4.597099870E-2,1.461649984E-1
2.052610298E1,1.398099959E-2,-3.772100061E-2,2.634870112E-1
2.054010860E1,1.398099959E-2,-3.772100061E-2,2.634870112E-1
2.055411341E1,-2.039999963E-4,6.337000057E-3,2.877160013E-1
2.056811902E1,-4.637999926E-3,2.851399966E-2,2.176479995E-1
2.058212541E1,-4.637999926E-3,2.851399966E-2,2.176479995E-1
2.059613106E1,-1.587500051E-2,-1.656000037E-3,2.253929973E-1
2.061013594E1,-1.527000032E-2,-3.477400169E-2,1.983209997E-1
2.062414152E1,-1.289500017E-2,-4.569900036E-2,1.864559948E-1
2.063814792E1,-1.289500017E-2,-4.569900036E-2,1.864559948E-1
2.065215355E1,1.849400066E-2,-4.494100064E-2,2.275409997E-1
2.066615838E1,7.468000054E-3,-1.831099950E-2,2.480790019E-1
2.068016400E1,7.468000054E-3,-1.831099950E-2,2.480790019E-1
2.069417039E1,2.759400010E-2,-3.402300179E-2,2.193920016E-1
2.070817600E1,1.239799988E-2,-5.683999974E-3,2.355860025E-1
2.072218089E1,1.239799988E-2,-5.683999974E-3,2.355860025E-1
2.073618651E1,5.239999853E-3,-2.596200071E-2,2.225269973E-1
2.075019293E1,5.770999938E-3,-1.309300028E-2,2.595239878E-1
2.076419854E1,3.076999914E-3,-9.495999664E-3,1.961030066E-1
2.077820335E1,3.076999914E-3,-9.495999664E-3,1.961030066E-1
2.079220898E1,2.257999964E-2,-2.340400033E-2,2.157229930E-1
2.080621533E1,4.132900015E-2,-1.803800091E-2,2.080080062E-1
2.082022103E1,4.132900015E-2,-1.803800091E-2,2.080080062E-1
2.083422589E1,3.232700005E-2,-2.481000032E-3,2.177859992E-1
2.084823145E1,4.811099917E-2,-2.149800025E-2,2.404969931E-1
2.086223784E1,4.811099917E-2,-2.149800025E-2,2.404969931E-1
2.087624347E1,2.703100070E-2,5.944000091E-3,2.428060025E-1
2.089024830E1,3.241400048E-2,-1.265500020E-2,2.392240018E-1
2.090425392E1,1.063800044E-2,-2.324499935E-2,2.279610038E-1
2.091826030E1,1.063800044E-2,-2.324499935E-2,2.279610038E-1
2.093226603E1,1.768299937E-2,-9.600999765E-3,2.299019992E-1
2.094627084E1,4.100000078E-4,-2.915599942E-2,2.228419930E-1
2.096027647E1,4.100000078E-4,-2.915599942E-2,2.228419930E-1
2.097428283E1,1.056999993E-2,-3.969100118E-2,2.347469926E-1
2.098828848E1,-8.652999997E-3,-5.195900053E-2,2.177270055E-1
2.100229332E1,-8.652999997E-3,-5.195900053E-2,2.177270055E-1
2.101629903E1,2.835999941E-3,-5.933900177E-2,2.177149951E-1
2.103030539E1,-1.916499995E-2,-4.342199862E-2,2.155500054E-1
2.104431106E1,3.280000063E-3,-3.086699918E-2,2.122910023E-1
2.105831597E1,3.280000063E-3,-3.086699918E-2,2.122910023E-1
2.107232158E1,-1.529200003E-2,-8.712000214E-3,2.189729959E-1
2.108632795E1,1.393999998E-2,-1.602800004E-2,2.185129970E-1
2.110033357E1,1.393999998E-2,-1.602800004E-2,2.185129970E-1
2.111433852E1,3.154399991E-2,3.203999950E-3,2.113430053E-1
2.112834416E1,6.577000022E-3,-6.965000182E-3,2.234040052E-1
2.114235055E1,1.082400046E-2,-1.831799932E-2,2.572660148E-1
2.115635617E1,1.082400046E-2,-1.831799932E-2,2.572660148E-1
2.117036103E1,3.041299991E-2,-1.923199929E-2,2.563219965E-1
2.118436675E1,1.171700004E-2,-1.169900037E-2,2.146250010E-1
2.119837314E1,1.171700004E-2,-1.169900037E-2,2.146250010E-1
2.121237875E1,2.854499966E-2,-1.495500002E-2,2.194509953E-1
2.122638359E1,1.519600023E-2,-8.481999859E-3,2.047930062E-1
2.124038922E1,1.519600023E-2,-8.481999859E-3,2.047930062E-1
2.125439563E1,3.298399970E-2,-2.949000103E-3,2.175540030E-1
2.126840122E1,5.037200078E-2,-2.835099958E-2,1.857279986E-1
2.128240607E1,6.787700206E-2,-4.222999886E-2,2.540940046E-1
2.129641178E1,6.787700206E-2,-4.222999886E-2,2.540940046E-1
2.131041817E1,4.483100027E-2,-3.500900045E-2,1.142010018E-1
2.132442376E1,5.366099998E-2,-3.532300144E-2,2.390629947E-1
2.133842858E1,5.366099998E-2,-3.532300144E-2,2.390629947E-1
2.135243419E1,6.380000268E-4,5.508000031E-3,3.292970061E-1
2.136644056E1,-2.641900070E-2,3.163599968E-2,2.590740025E-1
2.138044617E1,-2.641900070E-2,3.163599968E-2,2.590740025E-1
2.139445108E1,-3.137499839E-2,2.641599998E-2,2.025959939E-1
2.140845671E1,-2.213099971E-2,8.608999662E-3,1.834689975E-1
2.142246309E1,-1.334299985E-2,-2.244599909E-2,2.169999927E-1
2.143646871E1,-1.334299985E-2,-2.244599909E-2,2.169999927E-1
2.145047347E1,3.439699858E-2,-3.295100108E-2,2.444639951E-1
2.146447905E1,1.487999968E-2,-4.918099940E-2,2.541399896E-1
2.147848546E1,1.487999968E-2,-4.918099940E-2,2.541399896E-1
2.149249110E1,-4.109700024E-2,1.789099909E-2,2.711969912E-1
2.150649602E1,-1.719159931E-1,8.871199936E-2,3.905319870E-1
2.152050161E1,-1.719159931E-1,8.871199936E-2,3.905319870E-1
2.153450797E1,-2.883380055E-1,9.255799651E-2,4.461219907E-1
2.154851357E1,-3.168410063E-1,3.373000072E-3,3.902930021E-1
2.156251843E1,-4.265910089E-1,7.902000099E-3,5.047699809E-1
2.157652406E1,-4.265910089E-1,7.902000099E-3,5.047699809E-1
2.159053042E1,-3.583990037E-1,1.548899990E-2,5.070509911E-1
2.160453606E1,-1.947579980E-1,-1.360500045E-2,3.577600121E-1
2.161854095E1,-1.947579980E-1,-1.360500045E-2,3.577600121E-1
2.163254656E1,-5.888900161E-2,-2.125299908E-2,1.193979979E-1
2.164655295E1,8.720000088E-2,9.275600314E-2,7.688000053E-2
2.166055862E1,8.720000088E-2,9.275600314E-2,7.688000053E-2
2.167456352E1,2.018110007E-1,1.669889987E-1,1.466609985E-1
2.168856917E1,2.158319950E-1,1.464740038E-1,1.584780067E-1
2.170257551E1,2.043219954E-1,-4.949999973E-3,4.302699864E-2
2.171658121E1,2.043219954E-1,-4.949999973E-3,4.302699864E-2
2.173058607E1,1.725499928E-1,-2.069139928E-1,-2.283999929E-3
2.174459169E1,9.221100062E-2,-2.502689958E-1,1.232210025E-1
2.175859808E1,9.221100062E-2,-2.502689958E-1,1.232210025E-1
2.177260371E1,-2.125299908E-2,-2.851090133E-1,2.468190044E-1
2.178660858E1,-6.659899652E-2,-3.521249890E-1,1.052350029E-1
2.180061428E1,-6.659899652E-2,-3.521249890E-1,1.052350029E-1
2.181462056E1,-6.380199641E-2,-3.944990039E-1,6.036699936E-2
2.182862629E1,-4.784800112E-2,-3.459669948E-1,1.332630068E-1
2.184263114E1,4.152199998E-2,-2.389300019E-1,1.592299938E-1
2.185663673E1,4.152199998E-2,-2.389300019E-1,1.592299938E-1
2.187064310E1,1.561229974E-1,-1.174060032E-1,7.888499647E-2
2.188464872E1,2.511610091E-1,-2.517000027E-2,9.177699685E-2
2.189865354E1,2.511610091E-1,-2.517000027E-2,9.177699685E-2
2.191265916E1,2.869890034E-1,4.249899834E-2,1.636770070E-1
2.192666557E1,2.640269995E-1,4.820799828E-2,2.753100097E-1
2.194067126E1,2.640269995E-1,4.820799828E-2,2.753100097E-1
2.195467613E1,2.016700059E-1,1.637000032E-2,3.257550001E-1
2.196868176E1,1.767770052E-1,-1.817700081E-2,3.144589961E-1
2.198268816E1,1.918630004E-1,-5.578999873E-3,2.525419891E-1
2.199669372E1,1.918630004E-1,-5.578999873E-3,2.525419891E-1
2.201069858E1,6.413500011E-2,1.378210038E-1,1.543889940E-1
2.202470426E1,-1.028819978E-1,2.354989946E-1,1.871210039E-1
2.203871063E1,-1.028819978E-1,2.354989946E-1,1.871210039E-1
2.205271622E1,-2.118310034E-1,2.136300057E-1,9.882300347E-2
2.206672108E1,-2.093330026E-1,1.197360009E-1,1.436299980E-1
2.208072669E1,-2.093330026E-1,1.197360009E-1,1.436299980E-1
2.209473306E1,-1.517670006E-1,3.711400181E-2,1.982630044E-1
2.210873865E1,-1.061879992E-1,1.946000033E-3,2.386599928E-1
2.212274352E1,-7.341700047E-2,-4.262699932E-2,1.464550048E-1
2.213674922E1,-7.341700047E-2,-4.262699932E-2,1.464550048E-1
2.215075560E1,4.033600166E-2,-1.836680025E-1,3.219659925E-1
2.216476122E1,1.495260000E-1,-2.521939874E-1,3.751460016E-1
2.217876604E1,1.495260000E-1,-2.521939874E-1,3.751460016E-1
2.219277162E1,2.372740060E-1,-1.914789975E-1,2.860639989E-1
2.220677804E1,2.579829991E-1,-6.486000028E-3,9.437300265E-2
2.222078365E1,2.579829991E-1,-6.486000028E-3,9.437300265E-2
2.223478852E1,1.164700016E-1,1.351480037E-1,5.710300058E-2
2.224879420E1,-3.889599815E-2,1.707720011E-1,1.897179931E-1
2.226280058E1,1.330520064E-1,6.564299762E-2,1.625719965E-1
2.227680621E1,1.330520064E-1,6.564299762E-2,1.625719965E-1
2.229081106E1,7.427809834E-1,-1.347180009E-1,9.008800238E-2
2.230481668E1,8.041920066E-1,-5.356299877E-2,3.455100060E-1
2.231882305E1,8.041920066E-1,-5.356299877E-2,3.455100060E-1
2.233282868E1,6.882870197E-1,2.036200017E-1,5.225229859E-1
2.234683355E1,1.740690023E-1,4.432030022E-1,4.945299923E-1
2.236083921E1,1.740690023E-1,4.432030022E-1,4.945299923E-1
2.237484556E1,-2.001499981E-1,3.634920120E-1,4.888759851E-1
2.238885118E1,-6.187779903E-1,3.259449899E-1,3.551720083E-1
2.240285605E1,-7.364140153E-1,1.726540029E-1,6.754499674E-2
2.241686169E1,-7.364140153E-1,1.726540029E-1,6.754499674E-2
2.243086808E1,-6.506490111E-1,-1.740390062E-1,2.760200016E-2
2.244487370E1,-4.572829902E-1,-3.982999921E-1,1.134729981E-1
2.245887862E1,-4.572829902E-1,-3.982999921E-1,1.134729981E-1
2.247288423E1,-1.478890032E-1,-4.482859969E-1,1.740819961E-1
2.248689063E1,2.233680040E-1,-3.191019893E-1,2.995319963E-1
2.250089626E1,2.233680040E-1,-3.191019893E-1,2.995319963E-1
2.251490109E1,4.326260090E-1,-1.684309989E-1,4.048259854E-1
2.252890670E1,5.066559911E-1,-2.911699936E-2,4.057759941E-1
2.254291309E1,4.207819998E-1,1.056730002E-1,3.098689914E-1
2.255691865E1,4.207819998E-1,1.056730002E-1,3.098689914E-1
2.257092360E1,2.218849957E-1,2.423599958E-1,1.480849981E-1
2.258492921E1,-4.525000229E-3,2.824400067E-1,1.203820035E-1
2.259893562E1,-4.525000229E-3,2.824400067E-1,1.203820035E-1
2.261294125E1,-1.250129938E-1,2.502479851E-1,2.977409959E-1
2.262694608E1,1.060639992E-1,6.146219969E-1,3.661800027E-1
2.264095168E1,1.060639992E-1,6.146219969E-1,3.661800027E-1
2.265495807E1,2.971329987E-1,5.689359903E-1,6.411280036E-1
2.266896367E1,2.067449987E-1,-7.206899673E-2,8.187069893E-1
2.268296860E1,7.110700011E-2,-5.652700067E-1,5.950880051E-1
2.269697420E1,7.110700011E-2,-5.652700067E-1,5.950880051E-1
2.271098062E1,-3.736000136E-2,-9.630680084E-1,8.549190164E-1
2.272498625E1,-1.511220038E-1,-8.300970197E-1,-3.645650148E-1
2.273899108E1,-1.511220038E-1,-8.300970197E-1,-3.645650148E-1
2.275299675E1,-3.236390054E-1,-5.836400017E-2,-1.236412048E0
2.276700313E1,-2.526170015E-1,8.598769903E-1,7.124900073E-2
2.278100884E1,-2.526170015E-1,8.598769903E-1,7.124900073E-2
2.279501367E1,-4.908950031E-1,7.885209918E-1,1.086413980E0
2.280901927E1,-4.582099915E-1,4.010210037E-1,2.193740010E-1
2.282302567E1,-3.042739928E-1,3.434810042E-1,-8.529499918E-2
2.283703126E1,-3.042739928E-1,3.434810042E-1,-8.529499918E-2
2.285103613E1,-7.634860277E-1,-1.021789983E-1,6.779339910E-1
2.286504183E1,-6.507480145E-1,-8.320379853E-1,3.606100082E-1
2.287904822E1,-6.507480145E-1,-8.320379853E-1,3.606100082E-1
2.289305383E1,3.577499837E-2,-7.969189882E-1,-2.879579961E-1
2.290705863E1,4.502570033E-1,-7.137899846E-2,-2.452230006E-1
2.292106424E1,4.502570033E-1,-7.137899846E-2,-2.452230006E-1
2.293507062E1,8.453500271E-1,3.637169898E-1,9.059900045E-2
2.294907620E1,9.117119908E-1,2.816259861E-1,4.611799866E-2
2.296308110E1,6.360930204E-1,2.350829989E-1,1.654000022E-3
2.297708668E1,6.360930204E-1,2.350829989E-1,1.654000022E-3
2.299109304E1,1.044669971E-1,3.512290120E-1,6.817830205E-1
2.300509865E1,-2.366040051E-1,5.251510143E-1,5.326399803E-1
2.301910348E1,-2.366040051E-1,5.251510143E-1,5.326399803E-1
2.303310908E1,-3.161149919E-1,5.322660208E-1,3.596970141E-1
2.304711550E1,-3.208979964E-1,2.633320093E-1,3.252620101E-1
2.306112110E1,-3.208979964E-1,2.633320093E-1,3.252620101E-1
2.307512605E1,-2.483260036E-1,-1.690420061E-1,2.107210010E-1
2.308913172E1,-1.477179974E-1,-4.234719872E-1,7.413599640E-2
2.310313808E1,1.393599994E-2,-5.173869729E-1,4.149999935E-3
2.311714370E1,1.393599994E-2,-5.173869729E-1,4.149999935E-3
2.313114856E1,2.086250037E-1,-2.000049949E-1,2.371100038E-1
2.314515418E1,1.947350055E-1,7.853999734E-3,4.813190103E-1
2.315916060E1,1.947350055E-1,7.853999734E-3,4.813190103E-1
2.317316626E1,2.161529958E-1,2.183730006E-1,2.115489990E-1
2.318717112E1,9.777099639E-2,2.228379995E-1,2.749670148E-1
2.320117674E1,9.777099639E-2,2.228379995E-1,2.749670148E-1
2.321518310E1,-2.047999948E-2,1.735000014E-1,3.605679870E-1
2.322918873E1,-3.186300024E-2,1.704680026E-1,1.769279987E-1
2.324319356E1,-1.369290054E-1,1.483500004E-1,1.587170064E-1
2.325719916E1,-1.369290054E-1,1.483500004E-1,1.587170064E-1
2.327120561E1,-9.449400008E-2,9.667100012E-2,2.285300046E-1
2.328521120E1,-3.727800027E-2,1.331370026E-1,2.662380040E-1
2.329921601E1,-3.727800027E-2,1.331370026E-1,2.662380040E-1
2.331322165E1,2.764399908E-2,1.395760030E-1,2.647610009E-1
2.332722806E1,6.839200109E-2,7.165200263E-2,3.228319883E-1
2.334123369E1,6.839200109E-2,7.165200263E-2,3.228319883E-1
2.335523865E1,5.893100053E-2,-6.813299656E-2,3.391509950E-1
2.336924423E1,1.750100031E-2,-1.071809977E-1,3.052389920E-1
2.338325066E1,8.798000403E-3,-1.311700046E-1,2.552379966E-1
2.339725630E1,8.798000403E-3,-1.311700046E-1,2.552379966E-1
2.341126114E1,-3.726999974E-3,-1.105519980E-1,3.355689943E-1
2.342526676E1,-2.452800050E-2,-1.967499964E-2,3.462840021E-1
2.343927320E1,-2.452800050E-2,-1.967499964E-2,3.462840021E-1
2.345327882E1,-5.588000175E-3,4.292200133E-2,2.647599876E-1
2.346728377E1,-4.425099865E-2,3.365600109E-2,2.456919998E-1
2.348128937E1,-4.425099865E-2,3.365600109E-2,2.456919998E-1
2.349529577E1,-1.427650005E-1,-2.512099966E-2,1.684329957E-1
2.350930138E1,-1.561499983E-1,-5.386500061E-2,8.299200237E-2
2.352330621E1,-1.342480034E-1,-9.962300211E-2,1.434050053E-1
2.353731181E1,-1.342480034E-1,-9.962300211E-2,1.434050053E-1
2.355131820E1,7.809499651E-2,-1.140149981E-1,2.705039978E-1
2.356532384E1,2.346120030E-1,9.981899709E-2,3.600240052E-1
2.357932871E1,2.346120030E-1,9.981899709E-2,3.600240052E-1
2.359333431E1,5.422970057E-1,1.066119969E-1,3.178290129E-1
2.360734071E1,4.104439914E-1,-1.560099982E-2,4.171220064E-1
2.362134633E1,4.104439914E-1,-1.560099982E-2,4.171220064E-1
2.363535129E1,1.693099923E-2,-4.524489939E-1,2.109979987E-1
2.364935685E1,-1.139639989E-1,-4.985359907E-1,2.377440035E-1
2.366336329E1,-1.475940049E-1,-5.988200009E-2,1.413040012E-1
2.367736888E1,-1.475940049E-1,-5.988200009E-2,1.413040012E-1
2.369137371E1,-1.972350031E-1,2.149569988E-1,-2.928499877E-1
2.370537933E1,-2.969020009E-1,5.157499909E-1,4.681000113E-2
2.371938569E1,-2.969020009E-1,5.157499909E-1,4.681000113E-2
2.373339135E1,-1.967190057E-1,1.016631007E0,4.148130119E-1
2.374739629E1,4.401999991E-3,1.182185054E0,4.131619930E-1
2.376140187E1,4.401999991E-3,1.182185054E0,4.131619930E-1
2.377540828E1,2.142560035E-1,5.365329981E-1,2.047010064E-1
2.378941389E1,2.249799967E-1,-1.277180016E-1,5.679999944E-3
2.380341875E1,2.541059852E-1,-6.961249709E-1,3.346799910E-1
2.381742436E1,2.541059852E-1,-6.961249709E-1,3.346799910E-1
2.383143073E1,4.131189883E-1,-1.082005024E0,1.098296046E0
2.384543630E1,1.412760019E-1,-7.189059854E-1,-1.716410071E-1
2.385944123E1,1.412760019E-1,-7.189059854E-1,-1.716410071E-1
2.387344684E1,8.417399973E-2,-3.732979894E-1,-1.210639998E-1
2.388745323E1,-6.453999877E-2,-1.537660062E-1,4.301669896E-1
2.390145884E1,-6.453999877E-2,-1.537660062E-1,4.301669896E-1
2.391546369E1,-8.964999579E-3,-8.263000287E-3,1.697990000E-1
2.392946929E1,-3.267199919E-2,7.488999981E-3,-1.201340035E-1
2.394347568E1,-5.505400151E-2,-7.649300247E-2,-8.907599747E-2
2.395748135E1,-5.505400151E-2,-7.649300247E-2,-8.907599747E-2
2.397148622E1,1.837549955E-1,-1.956930012E-1,2.615340054E-1
2.398549184E1,2.498809993E-1,-9.252800047E-2,3.912369907E-1
2.399949819E1,2.498809993E-1,-9.252800047E-2,3.912369907E-1
2.401350382E1,3.830029964E-1,-7.892499864E-2,7.378339767E-1
2.402750868E1,3.704119921E-1,-4.307299852E-2,3.021090031E-1
2.404151439E1,3.704119921E-1,-4.307299852E-2,3.021090031E-1
2.405552077E1,2.234079987E-1,-1.315400004E-1,1.535699982E-2
2.406952640E1,2.003500015E-1,4.654699937E-2,3.428379893E-1
2.408353125E1,2.067379951E-1,7.882200181E-2,3.015640080E-1
2.409753688E1,2.067379951E-1,7.882200181E-2,3.015640080E-1
2.411154326E1,1.865799911E-2,2.139910012E-1,7.019499689E-2
2.412554887E1,-2.519469857E-1,2.645429969E-1,1.605820060E-1
2.413955381E1,-2.519469857E-1,2.645429969E-1,1.605820060E-1
2.415355943E1,-4.521200061E-1,3.353590071E-1,2.716819942E-1
2.416756584E1,-4.300459921E-1,4.609239995E-1,4.319289923E-1
2.418157145E1,-4.300459921E-1,4.609239995E-1,4.319289923E-1
2.419557632E1,-3.882459998E-1,4.048590064E-1,2.683649957E-1
2.420958201E1,-3.826749921E-1,1.911479980E-1,9.005299956E-2
2.422358833E1,-3.666529953E-1,-1.345600039E-1,2.863790095E-1
2.423759402E1,-3.666529953E-1,-1.345600039E-1,2.863790095E-1
2.425159889E1,-2.776530087E-1,-4.697679877E-1,3.245730102E-1
2.426560446E1,-1.914750040E-1,-4.762490094E-1,1.681900024E-1
2.427961084E1,-1.914750040E-1,-4.762490094E-1,1.681900024E-1
2.429361640E1,-1.442070007E-1,-3.328779936E-1,2.758800089E-1
2.430762132E1,-3.969199955E-2,-1.673600078E-2,2.696970105E-1
2.432162695E1,-3.969199955E-2,-1.673600078E-2,2.696970105E-1
2.433563338E1,1.142470017E-1,3.569509983E-1,1.071090028E-1
2.434963901E1,2.152699977E-1,4.169540107E-1,2.172439992E-1
2.436364386E1,2.653819919E-1,1.932470053E-1,2.795810103E-1
2.437764944E1,2.653819919E-1,1.932470053E-1,2.795810103E-1
2.439165583E1,1.717769951E-1,-1.269520074E-1,2.554239929E-1
2.440566149E1,6.145299971E-2,-3.794170022E-1,1.864629984E-1
2.441966634E1,6.145299971E-2,-3.794170022E-1,1.864629984E-1
2.443367192E1,7.892300189E-2,-4.230780005E-1,2.959749997E-1
2.444767830E1,1.082250029E-1,-2.925359905E-1,2.709789872E-1
2.446168398E1,1.082250029E-1,-2.925359905E-1,2.709789872E-1
2.447568882E1,8.471100032E-2,-1.791800000E-2,1.941349953E-1
2.448969450E1,1.058650017E-1,1.895280033E-1,1.275430024E-1
2.450370092E1,1.855449975E-1,3.509689867E-1,1.462049931E-1
2.451770656E1,1.855449975E-1,3.509689867E-1,1.462049931E-1
2.453171138E1,2.067649961E-1,3.631719947E-1,1.101170033E-1
2.454571696E1,2.189729959E-1,2.484679967E-1,1.182150021E-1
2.455972334E1,2.189729959E-1,2.484679967E-1,1.182150021E-1
2.457372893E1,2.728250027E-1,3.293000162E-2,9.130199999E-2
2.458773384E1,1.912229955E-1,-2.462570071E-1,3.303770125E-1
2.460173943E1,1.912229955E-1,-2.462570071E-1,3.303770125E-1
2.461574585E1,9.048300236E-2,-4.014320076E-1,3.159840107E-1
2.462975145E1,4.834999796E-3,-4.444290102E-1,2.689329982E-1
2.464375632E1,-3.883799911E-2,-3.659099936E-1,2.035229951E-1
2.465776195E1,-3.883799911E-2,-3.659099936E-1,2.035229951E-1
2.467176828E1,-8.241300285E-2,-2.220329940E-1,1.209340021E-1
2.468577386E1,-1.419409961E-1,-6.954199821E-2,1.532720029E-1
2.469977880E1,-1.419409961E-1,-6.954199821E-2,1.532720029E-1
2.471378440E1,-1.388349980E-1,7.181899995E-2,2.352180034E-1
2.472779077E1,-1.153009981E-1,1.690589935E-1,2.702910006E-1
2.474179642E1,-1.153009981E-1,1.690589935E-1,2.702910006E-1
2.475580128E1,-1.007210016E-1,1.370279938E-1,3.094510138E-1
2.476980686E1,-6.361299753E-2,6.300999969E-2,1.924290061E-1
2.478381335E1,2.624600008E-2,-6.210000068E-2,3.233399987E-1
2.479781900E1,2.624600008E-2,-6.210000068E-2,3.233399987E-1
2.481182383E1,4.121699929E-2,-1.148260012E-1,2.775149941E-1
2.482582938E1,5.957299843E-2,-4.977700114E-2,2.475900054E-1
2.483983577E1,5.957299843E-2,-4.977700114E-2,2.475900054E-1
2.485384131E1,2.448200062E-2,-6.413999945E-2,3.016059995E-1
2.486784626E1,6.001700088E-2,-8.706499636E-2,2.351019979E-1
2.488185185E1,6.001700088E-2,-8.706499636E-2,2.351019979E-1
2.489585825E1,8.904299885E-2,-4.275599867E-2,1.441140026E-1
2.490986384E1,1.577540040E-1,-2.337400056E-2,1.139599979E-1
2.492386872E1,1.158749983E-1,-5.840000138E-2,9.123200178E-2
2.493787433E1,1.158749983E-1,-5.840000138E-2,9.123200178E-2
2.495188070E1,1.418859959E-1,-2.376599982E-2,1.550049931E-1
2.496588632E1,7.986500114E-2,-1.607780010E-1,1.501169950E-1
2.497989125E1,7.986500114E-2,-1.607780010E-1,1.501169950E-1
2.499389682E1,4.255000036E-3,-2.384279966E-1,2.230769992E-1
2.500790319E1,1.127780005E-1,-2.154500037E-1,2.077410072E-1
2.502190882E1,1.127780005E-1,-2.154500037E-1,2.077410072E-1
2.503591368E1,5.299999844E-3,-1.448709965E-1,3.274970055E-1
2.504991941E1,-8.768999949E-3,-1.850800030E-2,2.683359981E-1
2.506392585E1,-7.231400162E-2,7.770100236E-2,2.261870056E-1
2.507793149E1,-7.231400162E-2,7.770100236E-2,2.261870056E-1
2.509193633E1,-1.334549934E-1,1.025120020E-1,2.475370020E-1
2.510594200E1,-1.664890051E-1,5.018199980E-2,2.518739998E-1
2.511994839E1,-1.664890051E-1,5.018199980E-2,2.518739998E-1
2.513395400E1,-1.504189968E-1,-7.375700027E-2,1.876460016E-1
2.514795890E1,-1.050250009E-1,-2.024500072E-1,1.477299929E-1
2.516196450E1,-1.050250009E-1,-2.024500072E-1,1.477299929E-1
2.517597091E1,2.459199913E-2,-2.731629908E-1,2.075929940E-1
2.518997652E1,8.169099689E-2,-2.176550031E-1,1.776800007E-1
2.520398137E1,1.263809949E-1,-1.582539976E-1,1.576939970E-1
2.521798699E1,1.263809949E-1,-1.582539976E-1,1.576939970E-1
2.523199336E1,1.802749932E-1,-1.095980033E-1,2.489410043E-1
2.524599898E1,1.704259962E-1,-1.173099969E-2,2.475879937E-1
2.526000389E1,1.704259962E-1,-1.173099969E-2,2.475879937E-1
2.527400951E1,1.639640033E-1,2.922499925E-2,1.988130063E-1
2.528801590E1,1.523710042E-1,1.463000011E-2,2.609170079E-1
2.530202153E1,1.523710042E-1,1.463000011E-2,2.609170079E-1
2.531602635E1,1.229199991E-1,-3.627299890E-2,2.754310071E-1
2.533003196E1,8.834099770E-2,-3.481300175E-2,2.801829875E-1
2.534403837E1,8.388499916E-2,-3.490899876E-2,2.915869951E-1
2.535804405E1,8.388499916E-2,-3.490899876E-2,2.915869951E-1
2.537204888E1,7.745900005E-2,-8.058399707E-2,3.027800024E-1
2.538605449E1,7.104999851E-3,-1.334989965E-1,3.023500144E-1
2.540006070E1,7.104999851E-3,-1.334989965E-1,3.023500144E-1
2.541406636E1,8.670999669E-3,-8.878500015E-2,2.326489985E-1
2.542807120E1,1.216400042E-2,-2.656999975E-2,1.128380001E-1
2.544207689E1,1.216400042E-2,-2.656999975E-2,1.128380001E-1
2.545608330E1,5.899399891E-2,-7.670699805E-2,5.984099954E-2
2.547008891E1,2.873899974E-2,-1.984380037E-1,6.260299683E-2
2.548409373E1,-5.581999943E-2,-2.264190018E-1,1.252110004E-1
2.549809934E1,-5.581999943E-2,-2.264190018E-1,1.252110004E-1
2.551210568E1,-5.070700124E-2,-2.020490021E-1,2.646000087E-1
2.552611128E1,-3.341300040E-2,-1.043939963E-1,3.327730000E-1
2.554011620E1,-3.341300040E-2,-1.043939963E-1,3.327730000E-1
2.555412180E1,-4.865600169E-2,-5.783000030E-3,2.875390053E-1
2.556812817E1,-4.199599847E-2,1.884499937E-2,3.457809985E-1
2.558213383E1,-4.199599847E-2,1.884499937E-2,3.457809985E-1
2.559613864E1,2.848000079E-2,6.453099847E-2,2.186000049E-1
2.561014442E1,5.108600110E-2,2.142300084E-2,1.275880039E-1
2.562415078E1,3.919500113E-2,-7.049600035E-2,1.081729978E-1
2.563815648E1,3.919500113E-2,-7.049600035E-2,1.081729978E-1
2.565216131E1,-1.320270002E-1,-1.026720032E-1,1.895350069E-1
2.566616695E1,-1.169919968E-1,-1.370809972E-1,2.067440003E-1
2.568017327E1,-1.169919968E-1,-1.370809972E-1,2.067440003E-1
2.569417891E1,-1.289789975E-1,-7.301399857E-2,2.271430045E-1
2.570818373E1,-4.717100039E-2,1.690799929E-2,2.778309882E-1
2.572218942E1,-4.717100039E-2,1.690799929E-2,2.778309882E-1
2.573619582E1,6.994000077E-2,5.029400066E-2,3.355219960E-1
2.575020144E1,1.187980026E-1,-2.253199928E-2,2.426400036E-1
2.576420627E1,1.322399974E-1,-1.486999989E-1,2.294930071E-1
2.577821190E1,1.322399974E-1,-1.486999989E-1,2.294930071E-1
2.579221828E1,1.551380008E-1,-1.300520003E-1,2.748610079E-1
2.580622394E1,1.984190047E-1,-5.045399815E-2,2.707020044E-1
2.582022884E1,1.984190047E-1,-5.045399815E-2,2.707020044E-1
2.583423447E1,2.350749969E-1,-7.674899697E-2,8.361700177E-2
2.584824086E1,2.420320064E-1,-1.558919996E-1,-3.258800134E-2
2.586224649E1,2.420320064E-1,-1.558919996E-1,-3.258800134E-2
2.587625132E1,1.377039999E-1,-2.246900052E-1,3.390000015E-2
2.589025706E1,3.196400031E-2,-1.745709926E-1,1.729130000E-1
2.590426339E1,7.071100175E-2,-1.210810021E-1,2.723299861E-1
2.591826910E1,7.071100175E-2,-1.210810021E-1,2.723299861E-1
2.593227398E1,6.052799895E-2,-2.520000003E-2,3.588660061E-1
2.594627964E1,1.592690051E-1,-8.166100085E-2,5.535799861E-1
2.596028603E1,1.592690051E-1,-8.166100085E-2,5.535799861E-1
2.597429167E1,-2.968870103E-1,1.883790046E-1,4.604249895E-1
2.598829658E1,-7.489400357E-2,1.276910007E-1,2.055259943E-1
2.600230221E1,-7.489400357E-2,1.276910007E-1,2.055259943E-1
2.601630856E1,-1.388349980E-1,3.608899936E-2,2.196390033E-1
2.603031416E1,-9.406200051E-2,-1.400790066E-1,3.517699987E-2
2.604431901E1,2.079999977E-4,-3.002839983E-1,-8.581600338E-2
2.605832461E1,2.079999977E-4,-3.002839983E-1,-8.581600338E-2
2.607233097E1,-7.387000136E-3,-3.257989883E-1,2.633729875E-1
2.608633667E1,4.812800139E-2,-2.082220018E-1,9.435529709E-1
2.610034147E1,4.812800139E-2,-2.082220018E-1,9.435529709E-1
2.611434709E1,1.019439995E-1,3.660999984E-2,2.775920033E-1
2.612835344E1,2.290100008E-1,4.397050142E-1,-3.035100102E-1
2.614235903E1,2.795140147E-1,4.482620060E-1,-6.684699655E-2
2.615636393E1,2.795140147E-1,4.482620060E-1,-6.684699655E-2
2.617036952E1,1.197410002E-1,-3.013800085E-2,1.931719929E-1
2.618437591E1,-1.478399988E-2,-3.381130099E-1,1.731500030E-2
2.619838157E1,-1.478399988E-2,-3.381130099E-1,1.731500030E-2
2.621238651E1,-2.292560041E-1,-3.863129914E-1,2.448969930E-1
2.622639211E1,-2.254689932E-1,-1.214129999E-1,8.043749928E-1
2.624039853E1,-2.254689932E-1,-1.214129999E-1,8.043749928E-1
2.625440417E1,-9.425500035E-2,1.129359975E-1,5.581369996E-1
2.626840898E1,-7.897999883E-2,1.443700045E-1,1.058510020E-1
2.628241467E1,-1.443300024E-2,8.728999645E-2,-1.946679950E-1
2.629642105E1,-1.443300024E-2,8.728999645E-2,-1.946679950E-1
2.631042670E1,5.196100101E-2,-1.223400012E-1,-4.197699949E-2
2.632443152E1,-7.304999977E-3,-2.247209996E-1,1.483719945E-1
2.633843715E1,-7.304999977E-3,-2.247209996E-1,1.483719945E-1
2.635244356E1,-2.904600091E-2,-3.071700037E-1,2.215120047E-1
2.636644924E1,2.527000010E-2,-1.320970058E-1,3.432889879E-1
2.638045410E1,2.527000010E-2,-1.320970058E-1,3.432889879E-1
2.639445974E1,8.915999904E-3,1.383319944E-1,3.284139931E-1
2.640846606E1,6.214699894E-2,2.497829944E-1,5.600979924E-1
2.642247169E1,1.166999992E-2,6.687200069E-2,3.589479923E-1
2.643647659E1,1.166999992E-2,6.687200069E-2,3.589479923E-1
2.645048219E1,-3.360699862E-2,-1.527750045E-1,-1.803299971E-2
2.646448856E1,-3.960699961E-2,-2.099850029E-1,3.649000078E-2
2.647849422E1,-3.960699961E-2,-2.099850029E-1,3.649000078E-2
2.649249909E1,-4.725100100E-2,-2.272689939E-1,1.587180048E-1
2.650650483E1,-6.900499761E-2,-1.637679935E-1,2.342309952E-1
2.652051121E1,-6.900499761E-2,-1.637679935E-1,2.342309952E-1
2.653451683E1,-7.908699661E-2,-8.035000414E-3,2.999800146E-1
2.654852168E1,-5.206400156E-2,1.728699952E-1,3.067010045E-1
2.656252728E1,-3.259599954E-2,2.501089871E-1,3.112840056E-1
2.657653375E1,-3.259599954E-2,2.501089871E-1,3.112840056E-1
2.659053942E1,9.600599855E-2,9.961900115E-2,3.940820098E-1
2.660454422E1,5.952500179E-2,-1.142729968E-1,2.059160024E-1
2.661854987E1,5.952500179E-2,-1.142729968E-1,2.059160024E-1
2.663255625E1,4.223100096E-2,-2.681219876E-1,8.277799934E-2
2.664656195E1,2.454400063E-2,-2.588349879E-1,1.810979992E-1
2.666056681E1,2.454400063E-2,-2.588349879E-1,1.810979992E-1
2.667457244E1,1.321200002E-2,-1.680150032E-1,2.088049948E-1
2.668857874E1,-8.053000085E-3,2.165699936E-2,2.122949958E-1
2.670258437E1,-1.270699967E-2,1.490810066E-1,2.806139886E-1
2.671658928E1,-1.270699967E-2,1.490810066E-1,2.806139886E-1
2.673059490E1,-5.667100102E-2,2.815119922E-1,1.327970028E-1
2.674460127E1,-2.769199945E-2,2.224240005E-1,1.849260032E-1
2.675860686E1,-2.769199945E-2,2.224240005E-1,1.849260032E-1
2.677261178E1,2.647100016E-2,3.960200027E-2,3.026919961E-1
2.678661743E1,5.531299859E-2,-2.112659961E-1,3.707289994E-1
2.680062381E1,5.531299859E-2,-2.112659961E-1,3.707289994E-1
2.681462939E1,1.129600033E-2,-3.188430071E-1,1.509229988E-1
2.682863430E1,6.181399897E-2,-4.203619957E-1,9.269499779E-2
2.684263988E1,6.064400077E-2,-3.990449905E-1,2.357520014E-1
2.685664625E1,6.064400077E-2,-3.990449905E-1,2.357520014E-1
2.687065184E1,3.748700023E-2,-1.140509993E-1,1.406770051E-1
2.688465669E1,1.404999988E-3,1.702920049E-1,1.371569932E-1
2.689866236E1,1.404999988E-3,1.702920049E-1,1.371569932E-1
2.691266881E1,-1.405199990E-2,4.058040082E-1,2.019760013E-1
2.692667440E1,-3.660799935E-2,5.323330164E-1,1.376419961E-1
2.694067925E1,-3.660799935E-2,5.323330164E-1,1.376419961E-1
2.695468485E1,-2.181399986E-2,3.884960115E-1,1.475480050E-1
2.696869127E1,7.484999951E-3,9.715799987E-2,1.917710006E-1
2.698269691E1,4.879799858E-2,-2.177560031E-1,2.978619933E-1
2.699670174E1,4.879799858E-2,-2.177560031E-1,2.978619933E-1
2.701070734E1,7.944200188E-2,-2.295240015E-1,2.095219940E-1
2.702471372E1,6.493200362E-2,-2.045000046E-1,3.585599959E-1
2.703871941E1,6.493200362E-2,-2.045000046E-1,3.585599959E-1
2.705272427E1,-5.136200041E-2,-3.206839859E-1,5.918440223E-1
2.706672987E1,-2.034420073E-1,-3.762780130E-1,6.021900177E-1
2.708073627E1,-2.034420073E-1,-3.762780130E-1,6.021900177E-1
2.709474198E1,-3.089390099E-1,-2.737390101E-1,4.194230139E-1
2.710874681E1,-4.044579864E-1,-1.828960031E-1,2.362249941E-1
2.712275246E1,-4.197669923E-1,-1.065130010E-1,1.921450049E-1
2.713675885E1,-4.197669923E-1,-1.065130010E-1,1.921450049E-1
2.715076442E1,-3.900299966E-1,-8.775500208E-2,1.296200007E-1
2.716476937E1,-2.575190067E-1,-4.957799986E-2,1.777079999E-1
2.717877499E1,-2.575190067E-1,-4.957799986E-2,1.777079999E-1
2.719278143E1,-9.458599985E-2,9.110499918E-2,2.585060000E-1
2.720678708E1,1.264789999E-1,2.967430055E-1,3.247579932E-1
2.722079202E1,1.264789999E-1,2.967430055E-1,3.247579932E-1
2.723479763E1,3.176890016E-1,3.946909904E-1,3.567729890E-1
2.724880403E1,4.224050045E-1,4.141210020E-1,3.447560072E-1
2.726280966E1,3.723970056E-1,3.010219932E-1,2.269749939E-1
2.727681460E1,3.723970056E-1,3.010219932E-1,2.269749939E-1
2.729082020E1,2.952089906E-1,1.132370010E-1,1.694879979E-1
2.730482658E1,2.073529959E-1,-3.484100103E-2,1.342719942E-1
2.731883217E1,2.073529959E-1,-3.484100103E-2,1.342719942E-1
2.733283709E1,1.173340008E-1,-2.000599951E-1,1.571879983E-1
2.734684270E1,4.689300060E-2,-3.110519946E-1,1.906590015E-1
2.736084908E1,4.689300060E-2,-3.110519946E-1,1.906590015E-1
2.737485477E1,-3.168999916E-3,-4.052970111E-1,1.618909985E-1
2.738885968E1,-1.042700000E-2,-4.160169959E-1,1.069609970E-1
2.740286528E1,-1.587099954E-2,-3.529169858E-1,1.762219965E-1
2.741687162E1,-1.587099954E-2,-3.529169858E-1,1.762219965E-1
2.743087725E1,-7.598000113E-3,-2.015520036E-1,2.226669937E-1
2.744488207E1,1.534700021E-2,-1.261049956E-1,2.832199931E-1
2.745888777E1,1.534700021E-2,-1.261049956E-1,2.832199931E-1
2.747289412E1,-5.727000069E-3,-5.168199912E-2,1.639530063E-1
2.748689977E1,-2.266900055E-2,1.914699934E-2,1.103440002E-1
2.750090461E1,-2.266900055E-2,1.914699934E-2,1.103440002E-1
2.751491031E1,-2.167000063E-2,-4.313300177E-2,2.629899979E-1
2.752891672E1,-2.529899962E-2,-6.995499879E-2,2.437420040E-1
2.754292233E1,-1.210100017E-2,-4.719299823E-2,1.011470035E-1
2.755692716E1,-1.210100017E-2,-4.719299823E-2,1.011470035E-1
2.757093287E1,3.257400170E-2,-5.117300153E-2,1.983979940E-1
2.758493924E1,-2.369300090E-2,-4.777399823E-2,2.111240029E-1
2.759894484E1,-2.369300090E-2,-4.777399823E-2,2.111240029E-1
2.761294970E1,-1.013400033E-1,-3.876600042E-2,1.964199990E-1
2.762695539E1,-1.976639926E-1,1.562399976E-2,2.148399949E-1
2.764096177E1,-1.976639926E-1,1.562399976E-2,2.148399949E-1
2.765496741E1,-1.169029996E-1,-5.908900127E-2,2.396959960E-1
2.766897224E1,-1.142399982E-1,-8.657100052E-2,2.641910017E-1
2.768297793E1,-2.980099991E-2,-1.411149949E-1,2.435249984E-1
2.769698430E1,-2.980099991E-2,-1.411149949E-1,2.435249984E-1
2.771098994E1,-5.725999828E-3,-8.520899713E-2,2.030300051E-1
2.772499479E1,-1.155999955E-2,-5.670500174E-2,3.440189958E-1
2.773900046E1,-1.155999955E-2,-5.670500174E-2,3.440189958E-1
2.775300683E1,7.524099946E-2,-1.066650003E-1,2.642300129E-1
2.776701245E1,1.779839993E-1,-9.780500084E-2,1.138510033E-1
2.778101730E1,1.779839993E-1,-9.780500084E-2,1.138510033E-1
2.779502298E1,2.029879987E-1,-6.059100106E-2,1.199320033E-1
2.780902941E1,1.237659976E-1,-3.460799903E-2,2.031130046E-1
2.782303500E1,9.591799974E-2,-3.606000170E-2,2.058610022E-1
2.783703988E1,9.591799974E-2,-3.606000170E-2,2.058610022E-1
2.785104557E1,8.658199757E-2,-4.080900177E-2,1.818940043E-1
2.786505196E1,5.840700120E-2,-5.581700057E-2,2.253549993E-1
2.787905760E1,5.840700120E-2,-5.581700057E-2,2.253549993E-1
2.789306250E1,6.950999796E-2,-6.916099787E-2,2.609699965E-1
2.790706821E1,3.213899955E-2,-2.120199986E-2,2.909669876E-1
2.792107456E1,3.213899955E-2,-2.120199986E-2,2.909669876E-1
2.793508022E1,1.509799995E-2,2.960000129E-4,2.775619924E-1
